trial_nr	onset	event_type	phase	response	nr_frames	prob1	prob2	n1	n2	choice	onset_abs	duration
1.0	0.015484357994864695	stim	0		1767						3.4298488500062376	29.51634971999738
1.0	29.51481134998903	response	0	space							32.929175842000404	
1.0	29.531834077992244	stim	0		301						32.94619857000362	5.010145057007321
1.0	32.98970507198828	response	0	space							36.404069563999656	
1.0	34.541979134999565	stim	0		15	0.55	1.0	33.0	10.0		37.95634362701094	0.24253825900086667
1.0	34.78451739400043	stim	1		18	0.55	1.0	33.0	10.0		38.198881886011804	0.29988824999600183
1.0	35.08440564399643	stim	2		18	0.55	1.0	33.0	10.0		38.498770136007806	0.300065650997567
1.0	35.384471294994	stim	3		30	0.55	1.0	33.0	10.0		38.79883578700537	0.5055209580023075
1.0	35.88999225299631	stim	4		36	0.55	1.0	33.0	10.0		39.30435674500768	0.5941000989987515
1.0	36.48409235199506	stim	5		300	0.55	1.0	33.0	10.0		39.89845684400643	5.000255350998486
1.0	41.484347702993546	stim	6		18	0.55	1.0	33.0	10.0		44.89871219500492	0.30006082099862397
1.0	41.78440852399217	stim	7		18	0.55	1.0	33.0	10.0		45.19877301600354	0.2997463189967675
1.0	42.08415484298894	stim	8		36	0.55	1.0	33.0	10.0		45.49851933500031	0.6003306130005512
1.0	42.68448545598949	stim	9		18	0.55	1.0	33.0	10.0		46.09884994800086	0.3088589100079844
1.0	42.98627683900122	response	9	j		0.55	1.0	33.0	10.0		46.400641331012594	
1.0	42.99334436599747	choice	9		240					1.0	46.407708858008846	3.6907256419945043
2.0	46.68407000799198	stim	0		15	0.55	1.0	39.0	28.0		50.09843450000335	0.2501561070093885
2.0	46.934226115001366	stim	1		18	0.55	1.0	39.0	28.0		50.34859060701274	0.3002161419863114
2.0	47.23444225698768	stim	2		18	0.55	1.0	39.0	28.0		50.64880674899905	0.2997853310080245
2.0	47.5342275879957	stim	3		30	0.55	1.0	39.0	28.0		50.948592080007074	0.5040044859924819
2.0	48.03823207398818	stim	4		33	0.55	1.0	39.0	28.0		51.452596565999556	0.612464344012551
2.0	48.650696418000734	stim	5		299	0.55	1.0	39.0	28.0		52.06506091001211	4.983731362997787
2.0	53.63442778099852	stim	6		18	0.55	1.0	39.0	28.0		57.048792273009894	0.29968469600134995
2.0	53.93411247699987	stim	7		18	0.55	1.0	39.0	28.0		57.348476969011244	0.30176775899599306
2.0	54.235880235995864	stim	8		31	0.55	1.0	39.0	28.0		57.65024472800724	0.6059928000031505
2.0	54.841873035999015	stim	9		23	0.55	1.0	39.0	28.0		58.25623752801039	0.3906650019926019
2.0	55.22713982399728	response	9	k		0.55	1.0	39.0	28.0		58.64150431600865	
2.0	55.23253803799162	choice	9		240					2.0	58.64690253000299	3.608656565003912
3.0	58.84119460299553	stim	0		15	0.55	1.0	23.0	7.0		62.2555590950069	0.25014895299682394
3.0	59.09134355599235	stim	1		18	0.55	1.0	23.0	7.0		62.505708048003726	0.29980086800060235
3.0	59.391144423992955	stim	2		18	0.55	1.0	23.0	7.0		62.80550891600433	0.30007318100251723
3.0	59.69121760499547	stim	3		29	0.55	1.0	23.0	7.0		63.105582097006845	0.5056956299958983
3.0	60.19691323499137	stim	4		28	0.55	1.0	23.0	7.0		63.611277727002744	0.5983028930058936
3.0	60.795216127997264	stim	5		299	0.55	1.0	23.0	7.0		64.20958062000864	4.995622489994275
3.0	65.79083861799154	stim	6		18	0.55	1.0	23.0	7.0		69.20520311000291	0.30002678200253285
3.0	66.09086539999407	stim	7		18	0.55	1.0	23.0	7.0		69.50522989200545	0.2998941450059647
3.0	66.39075954500004	stim	8		36	0.55	1.0	23.0	7.0		69.80512403701141	0.6000922649982385
3.0	66.99085180999828	stim	9		34	0.55	1.0	23.0	7.0		70.40521630200965	0.5912491990020499
3.0	67.57718167798885	response	9	j		0.55	1.0	23.0	7.0		70.99154617000022	
3.0	67.58210100900033	choice	9		238					1.0	70.9964655010117	3.401855150994379
4.0	70.9839561599947	stim	0		15	0.55	1.0	33.0	20.0		74.39832065200608	0.24995944599504583
4.0	71.23391560598975	stim	1		18	0.55	1.0	33.0	20.0		74.64828009800112	0.3000078949989984
4.0	71.53392350098875	stim	2		18	0.55	1.0	33.0	20.0		74.94828799300012	0.29982220100646373
4.0	71.83374570199521	stim	3		30	0.55	1.0	33.0	20.0		75.24811019400659	0.5036214360006852
4.0	72.3373671379959	stim	4		36	0.55	1.0	33.0	20.0		75.75173163000727	0.5965847890038276
4.0	72.93395192699973	stim	5		300	0.55	1.0	33.0	20.0		76.3483164190111	4.999937303990009
4.0	77.93388923098973	stim	6		18	0.55	1.0	33.0	20.0		81.34825372300111	0.2999631310085533
4.0	78.23385236199829	stim	7		18	0.55	1.0	33.0	20.0		81.64821685400966	0.29928897198988125
4.0	78.53314133398817	stim	8		32	0.55	1.0	33.0	20.0		81.94750582599954	0.6078038130071945
4.0	79.14094514699536	stim	9		31	0.55	1.0	33.0	20.0		82.55530963900674	0.5222529169986956
4.0	79.65881795599125	response	9	j		0.55	1.0	33.0	20.0		83.07318244800263	
4.0	79.66319806399406	choice	9		239					1.0	83.07756255600543	3.470563201000914
5.0	83.13376126499497	stim	0		15	0.55	1.0	112.0	28.0		86.54812575700635	0.25003706400457304
5.0	83.38379832899955	stim	1		18	0.55	1.0	112.0	28.0		86.79816282101092	0.2998438369977521
5.0	83.6836421659973	stim	2		18	0.55	1.0	112.0	28.0		87.09800665800867	0.29996639100136235
5.0	83.98360855699866	stim	3		30	0.55	1.0	112.0	28.0		87.39797304901003	0.5345336640020832
5.0	84.51814222100074	stim	4		12	0.55	1.0	112.0	28.0		87.93250671301212	0.5933290279936045
5.0	85.11147124899435	stim	5		298	0.55	1.0	112.0	28.0		88.52583574100572	4.9792533940053545
5.0	90.0907246429997	stim	6		18	0.55	1.0	112.0	28.0		93.50508913501108	0.3003388079960132
5.0	90.39106345099572	stim	7		18	0.55	1.0	112.0	28.0		93.80542794300709	0.3081434000050649
5.0	90.69920685100078	stim	8		28	0.55	1.0	112.0	28.0		94.11357134301215	0.5947157789923949
5.0	91.29392262999318	stim	9		24	0.55	1.0	112.0	28.0		94.70828712200455	0.412665885000024
5.0	91.70211793699127	response	9	j		0.55	1.0	112.0	28.0		95.11648242900264	
5.0	91.7065885149932	choice	9		239					1.0	95.12095300700457	3.5766191099974094
6.0	95.28320762499061	stim	0		15	0.55	1.0	8.0	7.0		98.69757211700198	0.2501365570060443
6.0	95.53334418199665	stim	1		18	0.55	1.0	8.0	7.0		98.94770867400803	0.30019591699237935
6.0	95.83354009898903	stim	2		18	0.55	1.0	8.0	7.0		99.2479045910004	0.2999799899989739
6.0	96.133520088988	stim	3		30	0.55	1.0	8.0	7.0		99.54788458099938	0.5000085339997895
6.0	96.6335286229878	stim	4		37	0.55	1.0	8.0	7.0		100.04789311499917	0.6161257050116546
6.0	97.24965432799945	stim	5		299	0.55	1.0	8.0	7.0		100.66401882001082	4.983644773994456
6.0	102.23329910199391	stim	6		18	0.55	1.0	8.0	7.0		105.64766359400528	0.3001134429941885
6.0	102.5334125449881	stim	7		18	0.55	1.0	8.0	7.0		105.94777703699947	0.30000088100496214
6.0	102.83341342599306	stim	8		36	0.55	1.0	8.0	7.0		106.24777791800443	0.6000610790069913
6.0	103.43347450500005	stim	9		52	0.55	1.0	8.0	7.0		106.84783899701142	0.8731269079871709
6.0	104.30223096998816	response	9	k		0.55	1.0	8.0	7.0		107.71659546199953	
6.0	104.30660141298722	choice	9		240					2.0	107.7209659049986	3.1267920110112755
7.0	107.4333934239985	stim	0		15	0.55	1.0	56.0	20.0		110.84775791600987	0.2499467529996764
7.0	107.68334017699817	stim	1		18	0.55	1.0	56.0	20.0		111.09770466900954	0.3001124699949287
7.0	107.9834526469931	stim	2		18	0.55	1.0	56.0	20.0		111.39781713900447	0.29992895800387487
7.0	108.28338160499698	stim	3		30	0.55	1.0	56.0	20.0		111.69774609700835	0.5096672709914856
7.0	108.79304887598846	stim	4		25	0.55	1.0	56.0	20.0		112.20741336799983	0.6068103249999695
7.0	109.39985920098843	stim	5		299	0.55	1.0	56.0	20.0		112.8142236929998	4.9834344730043085
7.0	114.38329367399274	stim	6		18	0.55	1.0	56.0	20.0		117.79765816600411	0.29994003599858843
7.0	114.68323370999133	stim	7		18	0.55	1.0	56.0	20.0		118.0975982020027	0.2993231209984515
7.0	114.98255683098978	stim	8		37	0.55	1.0	56.0	20.0		118.39692132300115	0.6173314379993826
7.0	115.59988826898916	stim	9		33	0.55	1.0	56.0	20.0		119.01425276100053	0.5569565629994031
7.0	116.15220735099865	response	9	k		0.55	1.0	56.0	20.0		119.56657184301002	
7.0	116.15684483198856	choice	9		239					2.0	119.57120932399994	3.425979827006813
8.0	119.58282465899538	stim	0		15	0.55	1.0	33.0	14.0		122.99718915100675	0.2500823400041554
8.0	119.83290699899953	stim	1		18	0.55	1.0	33.0	14.0		123.2472714910109	0.29993403000116814
8.0	120.1328410290007	stim	2		19	0.55	1.0	33.0	14.0		123.54720552101207	0.31665524998970795
8.0	120.44949627899041	stim	3		29	0.55	1.0	33.0	14.0		123.86386077100178	0.4858209160011029
8.0	120.93531719499151	stim	4		36	0.55	1.0	33.0	14.0		124.34968168700289	0.5964898230013205
8.0	121.53180701799283	stim	5		301	0.55	1.0	33.0	14.0		124.9461715100042	5.0169746199972
8.0	126.54878163799003	stim	6		18	0.55	1.0	33.0	14.0		129.9631461300014	0.3006928830000106
8.0	126.84947452099004	stim	7		18	0.55	1.0	33.0	14.0		130.26383901300142	0.29914204801025335
8.0	127.1486165690003	stim	8		36	0.55	1.0	33.0	14.0		130.56298106101167	0.6006143790000351
8.0	127.74923094800033	stim	9		33	0.55	1.0	33.0	14.0		131.1635954400117	0.5543006199877709
8.0	128.30004771299718	response	9	j		0.55	1.0	33.0	14.0		131.71441220500856	
8.0	128.3035315679881	choice	9		240					1.0	131.71789605999948	3.4449901530024363
9.0	131.74852172099054	stim	0		15	0.55	1.0	47.0	14.0		135.1628862130019	0.25050277799891774
9.0	131.99902449898946	stim	1		18	0.55	1.0	47.0	14.0		135.41338899100083	0.3002630140108522
9.0	132.2992875130003	stim	2		18	0.55	1.0	47.0	14.0		135.71365200501168	0.29964271798962727
9.0	132.59893023098994	stim	3		30	0.55	1.0	47.0	14.0		136.0132947230013	0.5085823310073465
9.0	133.10751256199728	stim	4		28	0.55	1.0	47.0	14.0		136.52187705400866	0.5916034769907128
9.0	133.699116038988	stim	5		300	0.55	1.0	47.0	14.0		137.11348053099937	4.999607719000778
9.0	138.69872375798877	stim	6		18	0.55	1.0	47.0	14.0		142.11308825000015	0.3003127310075797
9.0	138.99903648899635	stim	7		18	0.55	1.0	47.0	14.0		142.41340098100773	0.2998193459934555
9.0	139.2988558349898	stim	8		34	0.55	1.0	47.0	14.0		142.71322032700118	0.5917553510080324
9.0	139.89061118599784	stim	9		22	0.55	1.0	47.0	14.0		143.3049756780092	0.3733050379960332
9.0	140.25898662599502	response	9	j		0.55	1.0	47.0	14.0		143.6733511180064	
9.0	140.26391622399387	choice	9		240					1.0	143.67828071600525	3.625600494007813
10.0	143.8895167180017	stim	0		15	0.55	1.0	20.0	10.0		147.30388121001306	0.25012337099178694
10.0	144.13964008899347	stim	1		18	0.55	1.0	20.0	10.0		147.55400458100485	0.29987192500266246
10.0	144.43951201399614	stim	2		18	0.55	1.0	20.0	10.0		147.8538765060075	0.3000073680013884
10.0	144.73951938199752	stim	3		30	0.55	1.0	20.0	10.0		148.1538838740089	0.5043095809960505
10.0	145.24382896299358	stim	4		31	0.55	1.0	20.0	10.0		148.65819345500495	0.5841720430034911
10.0	145.82800100599707	stim	5		301	0.55	1.0	20.0	10.0		149.24236549800844	5.021376541000791
10.0	150.84937754699786	stim	6		18	0.55	1.0	20.0	10.0		154.26374203900923	0.29997181000362616
10.0	151.14934935700148	stim	7		18	0.55	1.0	20.0	10.0		154.56371384901286	0.2997116179903969
10.0	151.44906097499188	stim	8		36	0.55	1.0	20.0	10.0		154.86342546700325	0.6002120000048308
10.0	152.0492729749967	stim	9		28	0.55	1.0	20.0	10.0		155.46363746700808	0.4736976819986012
10.0	152.51846017799107	response	9	j		0.55	1.0	20.0	10.0		155.93282467000245	
10.0	152.5229706569953	choice	9		240					1.0	155.93733514900669	3.5254424320010003
1.0	156.0484130889963	stim	0		300						159.46277758100769	5.0003670470032375
11.0	161.04878013599955	stim	0		15	1.0	0.55	7.0	23.0		164.46314462801092	0.250042902000132
11.0	161.29882303799968	stim	1		18	1.0	0.55	7.0	23.0		164.71318753001106	0.3001014780020341
11.0	161.59892451600172	stim	2		18	1.0	0.55	7.0	23.0		165.0132890080131	0.2998612619994674
11.0	161.89878577800118	stim	3		30	1.0	0.55	7.0	23.0		165.31315027001256	0.49994621699443087
11.0	162.39873199499561	stim	4		36	1.0	0.55	7.0	23.0		165.813096487007	0.6000601760024438
11.0	162.99879217099806	stim	5		300	1.0	0.55	7.0	23.0		166.41315666300943	5.000079837001977
11.0	167.99887200800003	stim	6		18	1.0	0.55	7.0	23.0		171.4132365000114	0.30007780199230183
11.0	168.29894980999234	stim	7		18	1.0	0.55	7.0	23.0		171.7133143020037	0.29957757600641344
11.0	168.59852738599875	stim	8		36	1.0	0.55	7.0	23.0		172.01289187801012	0.6002077049924992
11.0	169.19873509099125	stim	9		21	1.0	0.55	7.0	23.0		172.61309958300262	0.356763937001233
11.0	169.55117833099212	response	9	k		1.0	0.55	7.0	23.0		172.9655428230035	
11.0	169.55549902799248	choice	9		240					2.0	172.96986352000386	3.643236706004245
12.0	173.19873573399673	stim	0		15	1.0	0.55	10.0	11.0		176.6131002260081	0.24995873800071422
12.0	173.44869447199744	stim	1		18	1.0	0.55	10.0	11.0		176.86305896400881	0.2999745499982964
12.0	173.74866902199574	stim	2		18	1.0	0.55	10.0	11.0		177.1630335140071	0.30006969699752517
12.0	174.04873871899326	stim	3		30	1.0	0.55	10.0	11.0		177.46310321100464	0.49952395500440616
12.0	174.54826267399767	stim	4		36	1.0	0.55	10.0	11.0		177.96262716600904	0.6002964459912619
12.0	175.14855911998893	stim	5		300	1.0	0.55	10.0	11.0		178.5629236120003	5.000272400007816
12.0	180.14883151999675	stim	6		18	1.0	0.55	10.0	11.0		183.56319601200812	0.2999133559933398
12.0	180.4487448759901	stim	7		18	1.0	0.55	10.0	11.0		183.86310936800146	0.2997880090115359
12.0	180.74853288500162	stim	8		36	1.0	0.55	10.0	11.0		184.162897377013	0.6003575059876312
12.0	181.34889039098925	stim	9		42	1.0	0.55	10.0	11.0		184.76325488300063	0.7062463809998007
12.0	182.05067282999516	response	9	j		1.0	0.55	10.0	11.0		185.46503732200654	
12.0	182.05513677198905	choice	9		240					1.0	185.46950126400043	3.29361597901152
13.0	185.34875275100057	stim	0		15	1.0	0.55	10.0	14.0		188.76311724301195	0.24982849799562246
13.0	185.5985812489962	stim	1		18	1.0	0.55	10.0	14.0		189.01294574100757	0.30012336099753156
13.0	185.89870460999373	stim	2		18	1.0	0.55	10.0	14.0		189.3130691020051	0.29996605099586304
13.0	186.1986706609896	stim	3		30	1.0	0.55	10.0	14.0		189.61303515300096	0.4997328110039234
13.0	186.69840347199352	stim	4		36	1.0	0.55	10.0	14.0		190.1127679640049	0.6003356110013556
13.0	187.29873908299487	stim	5		299	1.0	0.55	10.0	14.0		190.71310357500624	4.999931999002001
13.0	192.29867108199687	stim	6		18	1.0	0.55	10.0	14.0		195.71303557400825	0.29989803599892184
13.0	192.5985691179958	stim	7		18	1.0	0.55	10.0	14.0		196.01293361000717	0.299701534997439
13.0	192.89827065299323	stim	8		36	1.0	0.55	10.0	14.0		196.3126351450046	0.6001292300061323
13.0	193.49839988299937	stim	9		38	1.0	0.55	10.0	14.0		196.91276437501074	0.6406390929914778
13.0	194.13438759600103	response	9	j		1.0	0.55	10.0	14.0		197.5487520880124	
13.0	194.13903897599084	choice	9		240					1.0	197.55340346800222	3.3594300900003873
14.0	197.49846906599123	stim	0		15	1.0	0.55	14.0	56.0		200.9128335580026	0.24988972100254614
14.0	197.74835878699378	stim	1		18	1.0	0.55	14.0	56.0		201.16272327900515	0.3001457189966459
14.0	198.04850450599042	stim	2		18	1.0	0.55	14.0	56.0		201.4628689980018	0.2999349580059061
14.0	198.34843946399633	stim	3		30	1.0	0.55	14.0	56.0		201.7628039560077	0.49974804499652237
14.0	198.84818750899285	stim	4		36	1.0	0.55	14.0	56.0		202.26255200100422	0.6002699439995922
14.0	199.44845745299244	stim	5		300	1.0	0.55	14.0	56.0		202.86282194500382	4.99983995599905
14.0	204.4482974089915	stim	6		18	1.0	0.55	14.0	56.0		207.86266190100287	0.29988370499631856
14.0	204.7481811139878	stim	7		18	1.0	0.55	14.0	56.0		208.16254560599918	0.31080323801143095
14.0	205.05898435199924	stim	8		24	1.0	0.55	14.0	56.0		208.47334884401062	0.5721780469903024
14.0	205.63116239898955	stim	9		25	1.0	0.55	14.0	56.0		209.04552689100092	0.4232794859999558
14.0	206.05008408499998	response	9	k		1.0	0.55	14.0	56.0		209.46444857701135	
14.0	206.0544418849895	choice	9		241					2.0	209.46880637700087	3.5938750200002687
15.0	209.64831690498977	stim	0		15	1.0	0.55	7.0	14.0		213.06268139700114	0.2498323519976111
15.0	209.89814925698738	stim	1		18	1.0	0.55	7.0	14.0		213.31251374899875	0.3002052560041193
15.0	210.1983545129915	stim	2		18	1.0	0.55	7.0	14.0		213.61271900500287	0.2999291570013156
15.0	210.49828366999282	stim	3		30	1.0	0.55	7.0	14.0		213.9126481620042	0.49993266200181097
15.0	210.99821633199463	stim	4		36	1.0	0.55	7.0	14.0		214.412580824006	0.6000642190047074
15.0	211.59828055099933	stim	5		300	1.0	0.55	7.0	14.0		215.0126450430107	4.999793820999912
15.0	216.59807437199925	stim	6		18	1.0	0.55	7.0	14.0		220.01243886401062	0.30003831000067294
15.0	216.89811268199992	stim	7		18	1.0	0.55	7.0	14.0		220.3124771740113	0.2998281619948102
15.0	217.19794084399473	stim	8		36	1.0	0.55	7.0	14.0		220.6123053360061	0.6001828290027333
15.0	217.79812367299746	stim	9		28	1.0	0.55	7.0	14.0		221.21248816500884	0.4735281320026843
15.0	218.2672381769953	response	9	j		1.0	0.55	7.0	14.0		221.68160266900668	
15.0	218.27165180500015	choice	9		240					1.0	221.68601629701152	3.526202661989373
16.0	221.79785446698952	stim	0		15	1.0	0.55	7.0	11.0		225.2122189590009	0.24961597000947222
16.0	222.047470436999	stim	1		18	1.0	0.55	7.0	11.0		225.46183492901037	0.3001214449905092
16.0	222.3475918819895	stim	2		18	1.0	0.55	7.0	11.0		225.76195637400087	0.3004069900052855
16.0	222.6479988719948	stim	3		30	1.0	0.55	7.0	11.0		226.06236336400616	0.499771677001263
16.0	223.14777054899605	stim	4		36	1.0	0.55	7.0	11.0		226.56213504100742	0.5991882719972637
16.0	223.7469588209933	stim	5		300	1.0	0.55	7.0	11.0		227.1613233130047	5.000841018001665
16.0	228.74779983899498	stim	6		18	1.0	0.55	7.0	11.0		232.16216433100635	0.299050219997298
16.0	229.04685005899228	stim	7		18	1.0	0.55	7.0	11.0		232.46121455100365	0.30015247700794134
16.0	229.34700253600022	stim	8		36	1.0	0.55	7.0	11.0		232.7613670280116	0.600407843987341
16.0	229.94741037998756	stim	9		60	1.0	0.55	7.0	11.0		233.36177487199893	1.007047961000353
16.0	230.94989788898965	response	9	j		1.0	0.55	7.0	11.0		234.36426238100103	
16.0	230.9544583409879	choice	9		240					1.0	234.36882283299929	2.9927543830126524
17.0	233.94721272400056	stim	0		15	1.0	0.55	7.0	28.0		237.36157721601194	0.2501568919979036
17.0	234.19736961599847	stim	1		18	1.0	0.55	7.0	28.0		237.61173410800984	0.2999618999892846
17.0	234.49733151598775	stim	2		18	1.0	0.55	7.0	28.0		237.91169600799913	0.300303239011555
17.0	234.7976347549993	stim	3		30	1.0	0.55	7.0	28.0		238.21199924701068	0.5000766359880799
17.0	235.2977113909874	stim	4		36	1.0	0.55	7.0	28.0		238.71207588299876	0.5994170450139791
17.0	235.89712843600137	stim	5		300	1.0	0.55	7.0	28.0		239.31149292801274	5.000509126999532
17.0	240.8976375630009	stim	6		18	1.0	0.55	7.0	28.0		244.31200205501227	0.29974838499038015
17.0	241.19738594799128	stim	7		18	1.0	0.55	7.0	28.0		244.61175044000265	0.30145214100775775
17.0	241.49883808899904	stim	8		29	1.0	0.55	7.0	28.0		244.9132025810104	0.6064707350014942
17.0	242.10530882400053	stim	9		21	1.0	0.55	7.0	28.0		245.5196733160119	0.36596582899801433
17.0	242.46666382999683	response	9	k		1.0	0.55	7.0	28.0		245.8810283220082	
17.0	242.47127465299855	choice	9		239					2.0	245.88563914500992	3.6260986129927915
18.0	246.09737326599134	stim	0		15	1.0	0.55	14.0	39.0		249.5117377580027	0.25029797000752296
18.0	246.34767123599886	stim	1		18	1.0	0.55	14.0	39.0		249.76203572801023	0.29985126700194087
18.0	246.6475225030008	stim	2		18	1.0	0.55	14.0	39.0		250.06188699501217	0.29969596599403303
18.0	246.94721846899483	stim	3		30	1.0	0.55	14.0	39.0		250.3615829610062	0.5001762799947755
18.0	247.4473947489896	stim	4		36	1.0	0.55	14.0	39.0		250.86175924100098	0.6002626280096592
18.0	248.04765737699927	stim	5		300	1.0	0.55	14.0	39.0		251.46202186901064	4.999288469000021
18.0	253.0469458459993	stim	6		18	1.0	0.55	14.0	39.0		256.46131033801066	0.29968487699807156
18.0	253.34663072299736	stim	7		18	1.0	0.55	14.0	39.0		256.76099521500873	0.305657117991359
18.0	253.65228784098872	stim	8		32	1.0	0.55	14.0	39.0		257.0666523330001	0.5949336080084322
18.0	254.24722144899715	stim	9		17	1.0	0.55	14.0	39.0		257.6615859410085	0.2905346509942319
18.0	254.5330850899918	response	9	k		1.0	0.55	14.0	39.0		257.9474495820032	
18.0	254.53775609999138	choice	9		240					2.0	257.95212059200276	3.708866601009504
19.0	258.2466227010009	stim	0		15	1.0	0.55	20.0	23.0		261.66098719301226	0.24996950798959006
19.0	258.4965922089905	stim	1		18	1.0	0.55	20.0	23.0		261.91095670100185	0.30034487500961404
19.0	258.7969370840001	stim	2		18	1.0	0.55	20.0	23.0		262.21130157601146	0.3001401419896865
19.0	259.0970772259898	stim	3		30	1.0	0.55	20.0	23.0		262.51144171800115	0.4994967340026051
19.0	259.5965739599924	stim	4		36	1.0	0.55	20.0	23.0		263.01093845200376	0.6003235600073822
19.0	260.19689751999977	stim	5		300	1.0	0.55	20.0	23.0		263.61126201201114	4.999758068996016
19.0	265.1966555889958	stim	6		18	1.0	0.55	20.0	23.0		268.61102008100715	0.300081389999832
19.0	265.4967369789956	stim	7		18	1.0	0.55	20.0	23.0		268.911101471007	0.29957236599875614
19.0	265.79630934499437	stim	8		36	1.0	0.55	20.0	23.0		269.21067383700574	0.6001607910002349
19.0	266.3964701359946	stim	9		31	1.0	0.55	20.0	23.0		269.810834628006	0.5244778630003566
19.0	266.9163679399935	response	9	j		1.0	0.55	20.0	23.0		270.3307324320049	
19.0	266.92094799899496	choice	9		240					1.0	270.33531249100633	3.4762271420040634
20.0	270.397175140999	stim	0		15	1.0	0.55	7.0	9.0		273.8115396330104	0.24996657999872696
20.0	270.64714172099775	stim	1		18	1.0	0.55	7.0	9.0		274.0615062130091	0.2998489040037384
20.0	270.9469906250015	stim	2		18	1.0	0.55	7.0	9.0		274.36135511701286	0.2994587489956757
20.0	271.24644937399717	stim	3		30	1.0	0.55	7.0	9.0		274.66081386600854	0.5004520929942373
20.0	271.7469014669914	stim	4		36	1.0	0.55	7.0	9.0		275.1612659590028	0.5995804999984102
20.0	272.3464819669898	stim	5		300	1.0	0.55	7.0	9.0		275.7608464590012	5.000122972007375
20.0	277.3466049389972	stim	6		18	1.0	0.55	7.0	9.0		280.76096943100856	0.3005628809914924
20.0	277.6471678199887	stim	7		18	1.0	0.55	7.0	9.0		281.06153231200005	0.2998161830037134
20.0	277.9469840029924	stim	8		36	1.0	0.55	7.0	9.0		281.36134849500377	0.6001644909993047
20.0	278.5471484939917	stim	9		48	1.0	0.55	7.0	9.0		281.9615129860031	0.8064785019960254
20.0	279.34893045599165	response	9	j		1.0	0.55	7.0	9.0		282.763294948003	
20.0	279.3536269959877	choice	9		240					1.0	282.7679914879991	3.192723169006058
2.0	282.5463501649938	stim	0		973						285.96071465700516	16.21624123500078
2.0	298.7478096959967	response	0	space							302.16217418800807	
2.0	298.76259139999456	stim	0		301						302.17695589200594	5.0171077249979135
2.0	301.200755812999	response	0	space							304.61512030501035	
21.0	303.7796991249925	stim	0		15	1.0	0.55	20.0	33.0		307.19406361700385	0.249775086005684
21.0	304.02947421099816	stim	1		18	1.0	0.55	20.0	33.0		307.44383870300953	0.3003268619941082
21.0	304.32980107299227	stim	2		18	1.0	0.55	20.0	33.0		307.74416556500364	0.3001784310035873
21.0	304.62997950399586	stim	3		30	1.0	0.55	20.0	33.0		308.0443439960072	0.49926059899735264
21.0	305.1292401029932	stim	4		36	1.0	0.55	20.0	33.0		308.5436045950046	0.6004182089964161
21.0	305.7296583119896	stim	5		300	1.0	0.55	20.0	33.0		309.144022804001	4.999748858012026
21.0	310.72940717000165	stim	6		18	1.0	0.55	20.0	33.0		314.143771662013	0.30029262699827086
21.0	311.0296997969999	stim	7		18	1.0	0.55	20.0	33.0		314.4440642890113	0.31124012600048445
21.0	311.3409399230004	stim	8		36	1.0	0.55	20.0	33.0		314.7553044150118	0.5887990259943763
21.0	311.9297389489948	stim	9		65	1.0	0.55	20.0	33.0		315.34410344100615	1.0904491389956092
21.0	313.01555981999263	response	9	j		1.0	0.55	20.0	33.0		316.429924312004	
21.0	313.0201880879904	choice	9		240					1.0	316.43455258000176	2.9094672439969145
22.0	315.9296553319873	stim	0		15	1.0	0.55	14.0	28.0		319.3440198239987	0.25000343400461134
22.0	316.1796587659919	stim	1		18	1.0	0.55	14.0	28.0		319.5940232580033	0.30008627800270915
22.0	316.4797450439946	stim	2		18	1.0	0.55	14.0	28.0		319.894109536006	0.29973630800668616
22.0	316.7794813520013	stim	3		30	1.0	0.55	14.0	28.0		320.1938458440127	0.5000165649980772
22.0	317.2794979169994	stim	4		36	1.0	0.55	14.0	28.0		320.69386240901076	0.600277705991175
22.0	317.87977562299056	stim	5		300	1.0	0.55	14.0	28.0		321.29414011500194	4.999883306998527
22.0	322.8796589299891	stim	6		18	1.0	0.55	14.0	28.0		326.29402342200046	0.29991210100706667
22.0	323.17957103099616	stim	7		18	1.0	0.55	14.0	28.0		326.59393552300753	0.3008111709932564
22.0	323.4803822019894	stim	8		36	1.0	0.55	14.0	28.0		326.8947466940008	0.5990548210102133
22.0	324.0794370229996	stim	9		37	1.0	0.55	14.0	28.0		327.493801515011	0.6223257870005909
22.0	324.69753598399984	response	9	k		1.0	0.55	14.0	28.0		328.1119004760112	
22.0	324.7017628100002	choice	9		240					2.0	328.1161273020116	3.3772918969916645
23.0	328.0790547069919	stim	0		15	1.0	0.55	28.0	56.0		331.49341919900326	0.2496628079970833
23.0	328.32871751498897	stim	1		18	1.0	0.55	28.0	56.0		331.74308200700034	0.3005509840004379
23.0	328.6292684989894	stim	2		18	1.0	0.55	28.0	56.0		332.0436329910008	0.3000907000096049
23.0	328.929359198999	stim	3		30	1.0	0.55	28.0	56.0		332.3437236910104	0.5008902309928089
23.0	329.4302494299918	stim	4		33	1.0	0.55	28.0	56.0		332.8446139220032	0.5919041800079867
23.0	330.0221536099998	stim	5		300	1.0	0.55	28.0	56.0		333.4365181020112	5.007487433991628
23.0	335.02964104399143	stim	6		18	1.0	0.55	28.0	56.0		338.4440055360028	0.2999574220011709
23.0	335.3295984659926	stim	7		18	1.0	0.55	28.0	56.0		338.743962958004	0.31181100300455
23.0	335.64140946899715	stim	8		24	1.0	0.55	28.0	56.0		339.0557739610085	0.5879053749958985
23.0	336.22931484399305	stim	9		26	1.0	0.55	28.0	56.0		339.6436793360044	0.4387151660048403
23.0	336.66399647398794	response	9	k		1.0	0.55	28.0	56.0		340.0783609659993	
23.0	336.6680300099979	choice	9		240					2.0	340.08239450200927	3.5612460970005486
24.0	340.22927610699844	stim	0		15	1.0	0.55	20.0	47.0		343.6436405990098	0.2499747919937363
24.0	340.4792508989922	stim	1		18	1.0	0.55	20.0	47.0		343.89361539100355	0.3001896939967992
24.0	340.779440592989	stim	2		18	1.0	0.55	20.0	47.0		344.19380508500035	0.29995555900677573
24.0	341.07939615199575	stim	3		29	1.0	0.55	20.0	47.0		344.4937606440071	0.49423377799394075
24.0	341.5736299299897	stim	4		37	1.0	0.55	20.0	47.0		344.98799442200107	0.6054714360070648
24.0	342.17910136599676	stim	5		300	1.0	0.55	20.0	47.0		345.59346585800813	5.000152573004016
24.0	347.1792539390008	stim	6		18	1.0	0.55	20.0	47.0		350.59361843101215	0.299397611990571
24.0	347.47865155099134	stim	7		18	1.0	0.55	20.0	47.0		350.8930160430027	0.3087170939979842
24.0	347.78736864498933	stim	8		28	1.0	0.55	20.0	47.0		351.2017331370007	0.5918732190039009
24.0	348.37924186399323	stim	9		29	1.0	0.55	20.0	47.0		351.7936063560046	0.4906585959979566
24.0	348.8652550709958	response	9	k		1.0	0.55	20.0	47.0		352.27961956300715	
24.0	348.8699004599912	choice	9		240					2.0	352.28426495200256	3.509272367999074
25.0	352.37917282799026	stim	0		15	1.0	0.55	10.0	40.0		355.79353732000163	0.25007306500629056
25.0	352.62924589299655	stim	1		18	1.0	0.55	10.0	40.0		356.0436103850079	0.3000067169923568
25.0	352.9292526099889	stim	2		18	1.0	0.55	10.0	40.0		356.3436171020003	0.29988524300279096
25.0	353.2291378529917	stim	3		30	1.0	0.55	10.0	40.0		356.64350234500307	0.49978537899733055
25.0	353.72892323198903	stim	4		36	1.0	0.55	10.0	40.0		357.1432877240004	0.6000684970058501
25.0	354.3289917289949	stim	5		300	1.0	0.55	10.0	40.0		357.74335622100625	5.000169904000359
25.0	359.32916163299524	stim	6		18	1.0	0.55	10.0	40.0		362.7435261250066	0.29992729300283827
25.0	359.6290889259981	stim	7		18	1.0	0.55	10.0	40.0		363.04345341800945	0.3062657569971634
25.0	359.93535468299524	stim	8		31	1.0	0.55	10.0	40.0		363.3497191750066	0.5773519170033978
25.0	360.51270659999864	stim	9		35	1.0	0.55	10.0	40.0		363.92707109201	0.5900733809976373
25.0	361.09818197699497	response	9	k		1.0	0.55	10.0	40.0		364.51254646900634	
25.0	361.1027799809963	choice	9		241					2.0	364.51714447300765	3.4262203260004753
26.0	364.52900030699675	stim	0		15	1.0	0.55	14.0	16.0		367.9433647990081	0.2499612739920849
26.0	364.77896158098883	stim	1		18	1.0	0.55	14.0	16.0		368.1933260730002	0.30006867401243653
26.0	365.07903025500127	stim	2		18	1.0	0.55	14.0	16.0		368.49339474701264	0.29993059099069797
26.0	365.37896084599197	stim	3		30	1.0	0.55	14.0	16.0		368.79332533800334	0.4996613319963217
26.0	365.8786221779883	stim	4		36	1.0	0.55	14.0	16.0		369.29298666999966	0.6003024780075066
26.0	366.4789246559958	stim	5		300	1.0	0.55	14.0	16.0		369.89328914800717	4.999965184004395
26.0	371.4788898400002	stim	6		18	1.0	0.55	14.0	16.0		374.89325433201157	0.2998568549955962
26.0	371.7787466949958	stim	7		18	1.0	0.55	14.0	16.0		375.19311118700716	0.29978113700053655
26.0	372.0785278319963	stim	8		36	1.0	0.55	14.0	16.0		375.4928923240077	0.6003198359976523
26.0	372.678847667994	stim	9		20	1.0	0.55	14.0	16.0		376.09321216000535	0.3406346130068414
26.0	373.01488097399124	response	9	j		1.0	0.55	14.0	16.0		376.4292454660026	
26.0	373.0194822810008	choice	9		240					1.0	376.4338467730122	3.6591869599942584
27.0	376.6786692409951	stim	0		15	1.0	0.55	10.0	20.0		380.09303373300645	0.2501270999928238
27.0	376.9287963409879	stim	1		18	1.0	0.55	10.0	20.0		380.3431608329993	0.3000509760022396
27.0	377.22884731699014	stim	2		18	1.0	0.55	10.0	20.0		380.6432118090015	0.29997348799952306
27.0	377.52882080498966	stim	3		30	1.0	0.55	10.0	20.0		380.94318529700104	0.499790997011587
27.0	378.02861180200125	stim	4		36	1.0	0.55	10.0	20.0		381.4429762940126	0.6000624579901341
27.0	378.6286742599914	stim	5		300	1.0	0.55	10.0	20.0		382.04303875200276	5.000147683007526
27.0	383.6288219429989	stim	6		18	1.0	0.55	10.0	20.0		387.0431864350103	0.2999144899949897
27.0	383.9287364329939	stim	7		18	1.0	0.55	10.0	20.0		387.3431009250053	0.299262265994912
27.0	384.2279986989888	stim	8		36	1.0	0.55	10.0	20.0		387.6423631910002	0.6007096610119333
27.0	384.82870836000075	stim	9		32	1.0	0.55	10.0	20.0		388.2430728520121	0.5404028449993348
27.0	385.3644785910001	response	9	j		1.0	0.55	10.0	20.0		388.77884308301145	
27.0	385.3691112050001	choice	9		240					1.0	388.78347569701145	3.4593405810010154
28.0	388.8284517860011	stim	0		15	1.0	0.55	7.0	19.0		392.24281627801247	0.2499589379876852
28.0	389.0784107239888	stim	1		18	1.0	0.55	7.0	19.0		392.49277521600015	0.3001794820011128
28.0	389.3785902059899	stim	2		18	1.0	0.55	7.0	19.0		392.79295469800127	0.2999564360070508
28.0	389.67854664199695	stim	3		30	1.0	0.55	7.0	19.0		393.0929111340083	0.49975655500020366
28.0	390.17830319699715	stim	4		36	1.0	0.55	7.0	19.0		393.5926676890085	0.6001102059963159
28.0	390.77841340299346	stim	5		300	1.0	0.55	7.0	19.0		394.19277789500484	5.0000446350022685
28.0	395.77845803799573	stim	6		18	1.0	0.55	7.0	19.0		399.1928225300071	0.3000647650042083
28.0	396.07852280299994	stim	7		18	1.0	0.55	7.0	19.0		399.4928872950113	0.29918487499526236
28.0	396.3777076779952	stim	8		36	1.0	0.55	7.0	19.0		399.7920721700066	0.6005672409955878
28.0	396.9782749189908	stim	9		24	1.0	0.55	7.0	19.0		400.39263941100216	0.40570307700545527
28.0	397.3797644639999	response	9	k		1.0	0.55	7.0	19.0		400.79412895601126	
28.0	397.38397799599625	choice	9		240					2.0	400.7983424880076	3.5943623339990154
29.0	400.97834032999526	stim	0		15	1.0	0.55	20.0	56.0		404.39270482200664	0.25002990900247823
29.0	401.22837023899774	stim	1		18	1.0	0.55	20.0	56.0		404.6427347310091	0.30005948500183877
29.0	401.5284297239996	stim	2		18	1.0	0.55	20.0	56.0		404.94279421601095	0.29995857999892905
29.0	401.8283883039985	stim	3		30	1.0	0.55	20.0	56.0		405.2427527960099	0.4992814470024314
29.0	402.32766975100094	stim	4		36	1.0	0.55	20.0	56.0		405.7420342430123	0.6006677779951133
29.0	402.92833752899605	stim	5		300	1.0	0.55	20.0	56.0		406.3427020210074	4.999561532997177
29.0	407.92789906199323	stim	6		18	1.0	0.55	20.0	56.0		411.3422635540046	0.30021348599984776
29.0	408.2281125479931	stim	7		18	1.0	0.55	20.0	56.0		411.64247704000445	0.3116113169962773
29.0	408.53972386498936	stim	8		24	1.0	0.55	20.0	56.0		411.9540883570007	0.5711626050033374
29.0	409.1108864699927	stim	9		29	1.0	0.55	20.0	56.0		412.52525096200407	0.4905638810014352
29.0	409.5965734099882	response	9	k		1.0	0.55	20.0	56.0		413.01093790199957	
29.0	409.6014503509941	choice	9		241					2.0	413.0158148430055	3.526423931994941
30.0	413.12787428298907	stim	0		15	1.0	0.55	10.0	33.0		416.54223877500044	0.24999836800270714
30.0	413.3778726509918	stim	1		18	1.0	0.55	10.0	33.0		416.79223714300315	0.3001139630068792
30.0	413.67798661399866	stim	2		18	1.0	0.55	10.0	33.0		417.09235110601	0.2999641909991624
30.0	413.9779508049978	stim	3		30	1.0	0.55	10.0	33.0		417.3923152970092	0.49949974699120503
30.0	414.477450551989	stim	4		36	1.0	0.55	10.0	33.0		417.8918150440004	0.6002348129986785
30.0	415.0776853649877	stim	5		300	1.0	0.55	10.0	33.0		418.4920498569991	5.000403277008445
30.0	420.07808864199615	stim	6		18	1.0	0.55	10.0	33.0		423.4924531340075	0.3000007749942597
30.0	420.3780894169904	stim	7		18	1.0	0.55	10.0	33.0		423.7924539090018	0.2991288540069945
30.0	420.6772182709974	stim	8		35	1.0	0.55	10.0	33.0		424.0915827630088	0.5833833450014936
30.0	421.2606016159989	stim	9		32	1.0	0.55	10.0	33.0		424.67496610801027	0.5412988140014932
30.0	421.7971966699988	response	9	k		1.0	0.55	10.0	33.0		425.2115611620102	
30.0	421.8019004300004	choice	9		240					2.0	425.21626492201176	3.476014440995641
2.0	425.277914870996	stim	0		300						428.6922793630074	4.999927558994386
31.0	430.2778424299904	stim	0		15	0.55	1.0	14.0	7.0		433.6922069220018	0.24983780201000627
31.0	430.5276802320004	stim	1		18	0.55	1.0	14.0	7.0		433.9420447240118	0.30025485099758953
31.0	430.827935082998	stim	2		18	0.55	1.0	14.0	7.0		434.2422995750094	0.29991479399905074
31.0	431.12784987699706	stim	3		30	0.55	1.0	14.0	7.0		434.54221436900843	0.4996201369940536
31.0	431.6274700139911	stim	4		36	0.55	1.0	14.0	7.0		435.0418345060025	0.6003782250045333
31.0	432.22784823899565	stim	5		300	0.55	1.0	14.0	7.0		435.642212731007	4.999988226001733
31.0	437.2278364649974	stim	6		18	0.55	1.0	14.0	7.0		440.64220095700875	0.2998785660020076
31.0	437.5277150309994	stim	7		18	0.55	1.0	14.0	7.0		440.94207952301076	0.29994684499979485
31.0	437.8276618759992	stim	8		36	0.55	1.0	14.0	7.0		441.24202636801056	0.5995024430012563
31.0	438.42716431900044	stim	9		46	0.55	1.0	14.0	7.0		441.8415288110118	0.7731679939897731
31.0	439.1960124420002	response	9	j		0.55	1.0	14.0	7.0		442.6103769340116	
31.0	439.2003323129902	choice	9		240					1.0	442.6146968050016	3.227056611009175
32.0	442.4273889239994	stim	0		15	0.55	1.0	23.0	20.0		445.84175341601076	0.2502295750018675
32.0	442.67761849900126	stim	1		18	0.55	1.0	23.0	20.0		446.0919829910126	0.2999419989937451
32.0	442.977560497995	stim	2		18	0.55	1.0	23.0	20.0		446.3919249900064	0.3001568970066728
32.0	443.2777173950017	stim	3		30	0.55	1.0	23.0	20.0		446.69208188701305	0.49917551899852697
32.0	443.7768929140002	stim	4		36	0.55	1.0	23.0	20.0		447.1912574060116	0.6004020869877422
32.0	444.37729500098794	stim	5		300	0.55	1.0	23.0	20.0		447.7916594929993	5.000250446013524
32.0	449.37754544700147	stim	6		18	0.55	1.0	23.0	20.0		452.79190993901284	0.3000042279891204
32.0	449.6775496749906	stim	7		18	0.55	1.0	23.0	20.0		453.09191416700196	0.2993334960046923
32.0	449.9768831709953	stim	8		36	0.55	1.0	23.0	20.0		453.39124766300665	0.600501559994882
32.0	450.57738473099016	stim	9		60	0.55	1.0	23.0	20.0		453.99174922300153	1.006017605002853
32.0	451.5791145629919	response	9	k		0.55	1.0	23.0	20.0		454.99347905500326	
32.0	451.583402335993	choice	9		240					2.0	454.9977668280044	2.9939892620022874
33.0	454.5773915979953	stim	0		15	0.55	1.0	23.0	14.0		457.9917560900067	0.25010083700180985
33.0	454.8274924349971	stim	1		18	0.55	1.0	23.0	14.0		458.2418569270085	0.30014093399222475
33.0	455.12763336898934	stim	2		18	0.55	1.0	23.0	14.0		458.5419978610007	0.29966540999885183
33.0	455.4272987789882	stim	3		30	0.55	1.0	23.0	14.0		458.84166327099956	0.49954303201229777
33.0	455.9268418110005	stim	4		36	0.55	1.0	23.0	14.0		459.34120630301186	0.600651137996465
33.0	456.52749294899695	stim	5		300	0.55	1.0	23.0	14.0		459.9418574410083	4.999931443991954
33.0	461.5274243929889	stim	6		18	0.55	1.0	23.0	14.0		464.9417888850003	0.2998436070047319
33.0	461.82726799999364	stim	7		18	0.55	1.0	23.0	14.0		465.241632492005	0.29953915800433606
33.0	462.126807157998	stim	8		36	0.55	1.0	23.0	14.0		465.54117165000935	0.6005524939973839
33.0	462.72735965199536	stim	9		21	0.55	1.0	23.0	14.0		466.14172414400673	0.3564580499951262
33.0	463.07936893298756	response	9	k		0.55	1.0	23.0	14.0		466.49373342499894	
33.0	463.0838177019905	choice	9		240					2.0	466.49818219400186	3.643425925009069
34.0	466.72724362699955	stim	0		15	0.55	1.0	19.0	7.0		470.1416081190109	0.24995421899075154
34.0	466.9771978459903	stim	1		18	0.55	1.0	19.0	7.0		470.3915623380017	0.3000222090049647
34.0	467.27722005499527	stim	2		18	0.55	1.0	19.0	7.0		470.69158454700664	0.30001150199677795
34.0	467.57723155699205	stim	3		30	0.55	1.0	19.0	7.0		470.9915960490034	0.499326272009057
34.0	468.0765578290011	stim	4		36	0.55	1.0	19.0	7.0		471.4909223210125	0.6006459259951953
34.0	468.6772037549963	stim	5		300	0.55	1.0	19.0	7.0		472.0915682470077	4.999936427993816
34.0	473.6771401829901	stim	6		18	0.55	1.0	19.0	7.0		477.0915046750015	0.2999702700035414
34.0	473.97711045299366	stim	7		18	0.55	1.0	19.0	7.0		477.39147494500503	0.3000605510023888
34.0	474.27717100399605	stim	8		36	0.55	1.0	19.0	7.0		477.6915354960074	0.5999535139999352
34.0	474.877124517996	stim	9		21	0.55	1.0	19.0	7.0		478.29148901000735	0.35634375699737575
34.0	475.22923211500165	response	9	j		0.55	1.0	19.0	7.0		478.643596607013	
34.0	475.23346827499336	choice	9		240					1.0	478.64783276700473	3.643397264997475
35.0	478.87686553999083	stim	0		15	0.55	1.0	67.0	20.0		482.2912300320022	0.2502732690045377
35.0	479.12713880899537	stim	1		18	0.55	1.0	67.0	20.0		482.54150330100674	0.30005168200295884
35.0	479.4271904909983	stim	2		18	0.55	1.0	67.0	20.0		482.8415549830097	0.29960260199732147
35.0	479.72679309299565	stim	3		30	0.55	1.0	67.0	20.0		483.141157585007	0.5114037239982281
35.0	480.2381968169939	stim	4		20	0.55	1.0	67.0	20.0		483.65256130900525	0.6002064100030111
35.0	480.8384032269969	stim	5		299	0.55	1.0	67.0	20.0		484.25276771900826	5.002538614004152
35.0	485.84094184100104	stim	6		18	0.55	1.0	67.0	20.0		489.2553063330124	0.2859650799946394
35.0	486.1269069209957	stim	7		18	0.55	1.0	67.0	20.0		489.54127141300705	0.2992331429995829
35.0	486.42614006399526	stim	8		36	0.55	1.0	67.0	20.0		489.84050455600664	0.600806767004542
35.0	487.0269468309998	stim	9		26	0.55	1.0	67.0	20.0		490.4413113230112	0.4393534289993113
35.0	487.46202779599116	response	9	j		0.55	1.0	67.0	20.0		490.87639228800253	
35.0	487.4663002599991	choice	9		240					1.0	490.8806647520105	3.560546812994289
36.0	491.0268470729934	stim	0		15	0.55	1.0	28.0	7.0		494.4412115650048	0.2492869870038703
36.0	491.2761340599973	stim	1		18	0.55	1.0	28.0	7.0		494.69049855200865	0.3003258959943196
36.0	491.5764599559916	stim	2		18	0.55	1.0	28.0	7.0		494.99082444800297	0.30029942200053483
36.0	491.87675937799213	stim	3		30	0.55	1.0	28.0	7.0		495.2911238700035	0.5010797340073623
36.0	492.3778391119995	stim	4		29	0.55	1.0	28.0	7.0		495.79220360401087	0.5897879779950017
36.0	492.9676270899945	stim	5		300	0.55	1.0	28.0	7.0		496.38199158200587	5.009120546004851
36.0	497.97674763599935	stim	6		18	0.55	1.0	28.0	7.0		501.3911121280107	0.3000157499918714
36.0	498.2767633859912	stim	7		18	0.55	1.0	28.0	7.0		501.6911278780026	0.30006443000456784
36.0	498.5768278159958	stim	8		36	0.55	1.0	28.0	7.0		501.99119230800716	0.5998744660028024
36.0	499.1767022819986	stim	9		16	0.55	1.0	28.0	7.0		502.59106677400996	0.2726854079955956
36.0	499.44503481099673	response	9	j		0.55	1.0	28.0	7.0		502.8593993030081	
36.0	499.4493876899942	choice	9		237					1.0	502.86375218200556	3.717988984994008
37.0	503.1673766749882	stim	0		15	0.55	1.0	11.0	10.0		506.58174116699956	0.2499609340011375
37.0	503.4173376089893	stim	1		18	0.55	1.0	11.0	10.0		506.8317021010007	0.2998106610029936
37.0	503.7171482699923	stim	2		18	0.55	1.0	11.0	10.0		507.1315127620037	0.30023763100325596
37.0	504.0173859009956	stim	3		30	0.55	1.0	11.0	10.0		507.43175039300695	0.5010197590017924
37.0	504.51840565999737	stim	4		36	0.55	1.0	11.0	10.0		507.93277015200874	0.5988454460020876
37.0	505.11725110599946	stim	5		300	0.55	1.0	11.0	10.0		508.53161559801083	5.009075666996068
37.0	510.1263267729955	stim	6		18	0.55	1.0	11.0	10.0		513.5406912650069	0.30013191400212236
37.0	510.42645868699765	stim	7		18	0.55	1.0	11.0	10.0		513.840823179009	0.2993488929932937
37.0	510.72580757999094	stim	8		36	0.55	1.0	11.0	10.0		514.1401720720023	0.6004138840071391
37.0	511.3262214639981	stim	9		22	0.55	1.0	11.0	10.0		514.7405859560095	0.3739745920029236
37.0	511.6953334449936	response	9	k		0.55	1.0	11.0	10.0		515.109697937005	
37.0	511.700196056001	choice	9		240					2.0	515.1145605480124	3.6261394869943615
38.0	515.3263355429954	stim	0		15	0.55	1.0	39.0	14.0		518.7407000350067	0.2498510309960693
38.0	515.5761865739914	stim	1		18	0.55	1.0	39.0	14.0		518.9905510660028	0.30017460700764786
38.0	515.8763611809991	stim	2		18	0.55	1.0	39.0	14.0		519.2907256730105	0.2996885949978605
38.0	516.176049775997	stim	3		30	0.55	1.0	39.0	14.0		519.5904142680083	0.5053122709941817
38.0	516.6813620469911	stim	4		31	0.55	1.0	39.0	14.0		520.0957265390025	0.5947586810070788
38.0	517.2761207279982	stim	5		300	0.55	1.0	39.0	14.0		520.6904852200096	5.000159328992595
38.0	522.2762800569908	stim	6		18	0.55	1.0	39.0	14.0		525.6906445490022	0.2995604410098167
38.0	522.5758404980006	stim	7		18	0.55	1.0	39.0	14.0		525.990204990012	0.30048624899063725
38.0	522.8763267469913	stim	8		36	0.55	1.0	39.0	14.0		526.2906912390026	0.5998215290019289
38.0	523.4761482759932	stim	9		24	0.55	1.0	39.0	14.0		526.8905127680046	0.40681643299467396
38.0	523.8785143139976	response	9	j		0.55	1.0	39.0	14.0		527.292878806009	
38.0	523.8829647089879	choice	9		240					1.0	527.2973292009992	3.5932684330036864
39.0	527.4762331419915	stim	0		15	0.55	1.0	56.0	28.0		530.8905976340029	0.2500665569968987
39.0	527.7262996989884	stim	1		18	0.55	1.0	56.0	28.0		531.1406641909998	0.29966345100547187
39.0	528.0259631499939	stim	2		18	0.55	1.0	56.0	28.0		531.4403276420053	0.3002044710010523
39.0	528.326167620995	stim	3		30	0.55	1.0	56.0	28.0		531.7405321130063	0.5110857609979575
39.0	528.8372533819929	stim	4		24	0.55	1.0	56.0	28.0		532.2516178740043	0.5718348920054268
39.0	529.4090882739983	stim	5		301	0.55	1.0	56.0	28.0		532.8234527660097	5.016912015998969
39.0	534.4260002899973	stim	6		18	0.55	1.0	56.0	28.0		537.8403647820087	0.29988209999282844
39.0	534.7258823899901	stim	7		18	0.55	1.0	56.0	28.0		538.1402468820015	0.3003932190040359
39.0	535.0262756089942	stim	8		29	0.55	1.0	56.0	28.0		538.4406401010056	0.591354856005637
39.0	535.6176304649998	stim	9		39	0.55	1.0	56.0	28.0		539.0319949570112	0.6564183239970589
39.0	536.2691232829966	response	9	k		0.55	1.0	56.0	28.0		539.683487775008	
39.0	536.2740487889969	choice	9		240					2.0	539.6884132810083	3.3516685189970303
40.0	539.6257173079939	stim	0		15	0.55	1.0	28.0	10.0		543.0400818000053	0.2500234199978877
40.0	539.8757407279918	stim	1		18	0.55	1.0	28.0	10.0		543.2901052200032	0.3002128480002284
40.0	540.175953575992	stim	2		18	0.55	1.0	28.0	10.0		543.5903180680034	0.29976367800554726
40.0	540.4757172539976	stim	3		30	0.55	1.0	28.0	10.0		543.890081746009	0.5008966689929366
40.0	540.9766139229905	stim	4		32	0.55	1.0	28.0	10.0		544.3909784150019	0.6067658480023965
40.0	541.5833797709929	stim	5		299	0.55	1.0	28.0	10.0		544.9977442630043	4.982978807995096
40.0	546.566358578988	stim	6		17	0.55	1.0	28.0	10.0		549.9807230709994	0.3057241740025347
40.0	546.8720827529905	stim	7		19	0.55	1.0	28.0	10.0		550.2864472450019	0.30379069299669936
40.0	547.1758734459872	stim	8		36	0.55	1.0	28.0	10.0		550.5902379379986	0.600098461000016
40.0	547.7759719069873	stim	9		36	0.55	1.0	28.0	10.0		551.1903363989986	0.6067260350100696
40.0	548.3782349229878	response	9	j		0.55	1.0	28.0	10.0		551.7925994149991	
40.0	548.3826979419973	choice	9		240					1.0	551.7970624340087	3.3982369459990878
3.0	551.7809348879964	stim	0		391						555.1952993800078	6.511037766991649
3.0	558.2772645749938	response	0	space							561.6916290670051	
3.0	558.2919726549881	stim	0		301						561.7063371469994	5.016651523008477
41.0	563.3086241779965	stim	0		15	1.0	0.55	20.0	28.0		566.7229886700079	0.24986841800273396
41.0	563.5584925959993	stim	1		18	1.0	0.55	20.0	28.0		566.9728570880106	0.3002459059935063
41.0	563.8587385019928	stim	2		18	1.0	0.55	20.0	28.0		567.2731029940041	0.2997075339953881
41.0	564.1584460359882	stim	3		30	1.0	0.55	20.0	28.0		567.5728105279995	0.4997822950099362
41.0	564.6582283309981	stim	4		30	1.0	0.55	20.0	28.0		568.0725928230095	0.591216032000375
41.0	565.2494443629985	stim	5		298	1.0	0.55	20.0	28.0		568.6638088550098	5.009449934994336
41.0	570.2588942979928	stim	6		18	1.0	0.55	20.0	28.0		573.6732587900042	0.2999489409994567
41.0	570.5588432389923	stim	7		18	1.0	0.55	20.0	28.0		573.9732077310036	0.30157156400673557
41.0	570.860414802999	stim	8		27	1.0	0.55	20.0	28.0		574.2747792950104	0.5912954609957524
41.0	571.4517102639948	stim	9		37	1.0	0.55	20.0	28.0		574.8660747560061	0.621015750002698
41.0	572.06809333399	response	9	j		1.0	0.55	20.0	28.0		575.4824578260013	
41.0	572.0727260139975	choice	9		240					1.0	575.4870905060088	3.376713726000162
42.0	575.4494397399976	stim	0		15	1.0	0.55	14.0	33.0		578.863804232009	0.2500100589968497
42.0	575.6994497989945	stim	1		18	1.0	0.55	14.0	33.0		579.1138142910058	0.29969455300306436
42.0	575.9991443519975	stim	2		18	1.0	0.55	14.0	33.0		579.4135088440089	0.3003577389899874
42.0	576.2995020909875	stim	3		30	1.0	0.55	14.0	33.0		579.7138665829989	0.5020283920021029
42.0	576.8015304829896	stim	4		33	1.0	0.55	14.0	33.0		580.215894975001	0.6069944100017892
42.0	577.4085248929914	stim	5		300	1.0	0.55	14.0	33.0		580.8228893850028	5.000051089999033
42.0	582.4085759829904	stim	6		18	1.0	0.55	14.0	33.0		585.8229404750018	0.3000482760107843
42.0	582.7086242590012	stim	7		18	1.0	0.55	14.0	33.0		586.1229887510126	0.3038243469927693
42.0	583.012448605994	stim	8		35	1.0	0.55	14.0	33.0		586.4268130980054	0.578589169002953
42.0	583.591037774997	stim	9		31	1.0	0.55	14.0	33.0		587.0054022670083	0.5244384609977715
42.0	584.1106089109962	response	9	k		1.0	0.55	14.0	33.0		587.5249734030076	
42.0	584.1154762359947	choice	9		241					2.0	587.5298407280061	3.492101167998044
43.0	587.6075774039928	stim	0		15	1.0	0.55	28.0	47.0		591.0219418960041	0.2507610449974891
43.0	587.8583384489903	stim	1		18	1.0	0.55	28.0	47.0		591.2727029410016	0.3000231839978369
43.0	588.1583616329881	stim	2		18	1.0	0.55	28.0	47.0		591.5727261249995	0.2998612250084989
43.0	588.4582228579966	stim	3		30	1.0	0.55	28.0	47.0		591.872587350008	0.4994228720024694
43.0	588.9576457299991	stim	4		28	1.0	0.55	28.0	47.0		592.3720102220104	0.6076088319969131
43.0	589.565254561996	stim	5		298	1.0	0.55	28.0	47.0		592.9796190540073	4.98364710000169
43.0	593.4015567179886	response	5	k		1.0	0.55	28.0	47.0		596.8159212099999	
43.0	594.5489016619977	stim	6		18	1.0	0.55	28.0	47.0		597.963266154009	0.3002224009978818
43.0	594.8491240629955	stim	7		18	1.0	0.55	28.0	47.0		598.2634885550069	0.3149735180049902
43.0	595.1640975810005	stim	8		20	1.0	0.55	28.0	47.0		598.5784620730119	0.5852265349967638
43.0	595.7493241159973	stim	9		35	1.0	0.55	28.0	47.0		599.1636886080087	0.5895948090037564
43.0	596.3339545389899	response	9	k		1.0	0.55	28.0	47.0		599.7483190310013	
43.0	596.338918925001	choice	9		239					2.0	599.7532834170124	3.410211721988162
44.0	599.7491306469892	stim	0		15	1.0	0.55	28.0	33.0		603.1634951390006	0.2591192750114715
44.0	600.0082499220007	stim	1		18	1.0	0.55	28.0	33.0		603.4226144140121	0.3001572409993969
44.0	600.3084071630001	stim	2		18	1.0	0.55	28.0	33.0		603.7227716550115	0.2995951769989915
44.0	600.6080023399991	stim	3		30	1.0	0.55	28.0	33.0		604.0223668320104	0.5018172209965996
44.0	601.1098195609957	stim	4		30	1.0	0.55	28.0	33.0		604.524184053007	0.5897696689935401
44.0	601.6995892299892	stim	5		300	1.0	0.55	28.0	33.0		605.1139537220006	4.999096669009305
44.0	606.6986858989985	stim	6		18	1.0	0.55	28.0	33.0		610.1130503910099	0.3004639939899789
44.0	606.9991498929885	stim	7		18	1.0	0.55	28.0	33.0		610.4135143849999	0.30825014400761575
44.0	607.3074000369961	stim	8		24	1.0	0.55	28.0	33.0		610.7217645290075	0.5914568830048665
44.0	607.898856920001	stim	9		22	1.0	0.55	28.0	33.0		611.3132214120124	0.37239257599867415
44.0	608.251921461997	response	9	j		1.0	0.55	28.0	33.0		611.6662859540083	
44.0	608.2712494959997	choice	9		240					1.0	611.685613988011	3.6275756799877854
45.0	611.8988251759874	stim	0		15	1.0	0.55	20.0	67.0		615.3131896679988	0.24981627000670414
45.0	612.1486414459941	stim	1		17	1.0	0.55	20.0	67.0		615.5630059380055	0.3136465209972812
45.0	612.4622879669914	stim	2		16	1.0	0.55	20.0	67.0		615.8766524590028	0.28661032700620126
45.0	612.7488982939976	stim	3		30	1.0	0.55	20.0	67.0		616.163262786009	0.504327282003942
45.0	613.2532255760016	stim	4		30	1.0	0.55	20.0	67.0		616.6675900680129	0.6124762019899208
45.0	613.8657017779915	stim	5		298	1.0	0.55	20.0	67.0		617.2800662700029	4.982755802004249
45.0	618.8484575799957	stim	6		18	1.0	0.55	20.0	67.0		622.2628220720071	0.3093144489976112
45.0	619.1577720289933	stim	7		18	1.0	0.55	20.0	67.0		622.5721365210047	0.3160569360043155
45.0	619.4738289649977	stim	8		17	1.0	0.55	20.0	67.0		622.888193457009	0.5986679460038431
45.0	620.0724969110015	stim	9		19	1.0	0.55	20.0	67.0		623.4868614030129	0.31714570699841715
45.0	620.3845977479941	response	9	k		1.0	0.55	20.0	67.0		623.7989622400055	
45.0	620.3896426179999	choice	9		238					2.0	623.8040071100113	3.6590547319938196
46.0	624.0486973499937	stim	0		15	1.0	0.55	28.0	66.0		627.4630618420051	0.24990109000646044
46.0	624.2985984400002	stim	1		18	1.0	0.55	28.0	66.0		627.7129629320116	0.2997492589929607
46.0	624.5983476989932	stim	2		18	1.0	0.55	28.0	66.0		628.0127121910045	0.3003189370065229
46.0	624.8986666359997	stim	3		30	1.0	0.55	28.0	66.0		628.3130311280111	0.5075188589980826
46.0	625.4061854949978	stim	4		26	1.0	0.55	28.0	66.0		628.8205499870091	0.5954645129968412
46.0	626.0016500079946	stim	5		301	1.0	0.55	28.0	66.0		629.416014500006	5.006302125999355
46.0	631.007952133994	stim	6		18	1.0	0.55	28.0	66.0		634.4223166260053	0.2997149410075508
46.0	631.3076670750015	stim	7		18	1.0	0.55	28.0	66.0		634.7220315670129	0.3162894979905104
46.0	631.623956572992	stim	8		17	1.0	0.55	28.0	66.0		635.0383210650034	0.5928798070090124
46.0	632.216836380001	stim	9		13	1.0	0.55	28.0	66.0		635.6312008720124	0.2228431369876489
46.0	632.4342387279903	response	9	k		1.0	0.55	28.0	66.0		635.8486032200017	
46.0	632.4396795169887	choice	9		239					2.0	635.8540440090001	3.758778103001532
47.0	636.1984576199902	stim	0		15	1.0	0.55	10.0	28.0		639.6128221120016	0.24978646700037643
47.0	636.4482440869906	stim	1		18	1.0	0.55	10.0	28.0		639.862608579002	0.2999325900018448
47.0	636.7481766769924	stim	2		18	1.0	0.55	10.0	28.0		640.1625411690038	0.30026070099847857
47.0	636.8174726769939	response	2	k		1.0	0.55	10.0	28.0		640.2318371690053	
47.0	637.0484373779909	stim	3		30	1.0	0.55	10.0	28.0		640.4628018700023	0.5006765569996787
47.0	637.5491139349906	stim	4		36	1.0	0.55	10.0	28.0		640.963478427002	0.6083092460030457
47.0	638.1574231809936	stim	5		300	1.0	0.55	10.0	28.0		641.571787673005	5.0000157129979925
47.0	643.1574388939916	stim	6		18	1.0	0.55	10.0	28.0		646.571803386003	0.2998386140097864
47.0	643.4572775080014	stim	7		18	1.0	0.55	10.0	28.0		646.8716420000128	0.30177793199254666
47.0	643.759055439994	stim	8		27	1.0	0.55	10.0	28.0		647.1734199320053	0.5942382680077571
47.0	644.3532937080017	stim	9		28	1.0	0.55	10.0	28.0		647.7676582000131	0.4687671949941432
47.0	644.8171695069905	response	9	k		1.0	0.55	10.0	28.0		648.2315339990018	
47.0	644.8220609029959	choice	9		239					2.0	648.2364253950072	3.5353768070053775
48.0	648.3574377100012	stim	0		15	1.0	0.55	14.0	23.0		651.7718022020126	0.24985281299450435
48.0	648.6072905229958	stim	1		18	1.0	0.55	14.0	23.0		652.0216550150071	0.3000368289940525
48.0	648.9073273519898	stim	2		18	1.0	0.55	14.0	23.0		652.3216918440012	0.2999532160029048
48.0	649.2072805679927	stim	3		30	1.0	0.55	14.0	23.0		652.6216450600041	0.4996665119979298
48.0	649.7069470799906	stim	4		36	1.0	0.55	14.0	23.0		653.121311572002	0.6006221050047316
48.0	650.3075691849954	stim	5		300	1.0	0.55	14.0	23.0		653.7219336770067	4.999603832999128
48.0	655.3071730179945	stim	6		18	1.0	0.55	14.0	23.0		658.7215375100059	0.30010593100450933
48.0	655.607278948999	stim	7		18	1.0	0.55	14.0	23.0		659.0216434410104	0.29958630198962055
48.0	655.9068652509886	stim	8		36	1.0	0.55	14.0	23.0		659.321229743	0.6006019380001817
48.0	656.5074671889888	stim	9		21	1.0	0.55	14.0	23.0		659.9218316810002	0.356012736010598
48.0	656.8590201979969	response	9	j		1.0	0.55	14.0	23.0		660.2733846900082	
48.0	656.8634799249994	choice	9		240					1.0	660.2778444170108	3.643804123988957
49.0	660.5072840489884	stim	0		15	1.0	0.55	10.0	23.0		663.9216485409997	0.24997591400460806
49.0	660.757259962993	stim	1		18	1.0	0.55	10.0	23.0		664.1716244550043	0.3001175829995191
49.0	661.0573775459925	stim	2		18	1.0	0.55	10.0	23.0		664.4717420380039	0.29983253200771287
49.0	661.3572100780002	stim	3		30	1.0	0.55	10.0	23.0		664.7715745700116	0.4997004109900445
49.0	661.8569104889903	stim	4		36	1.0	0.55	10.0	23.0		665.2712749810016	0.6003643570002168
49.0	662.4572748459905	stim	5		298	1.0	0.55	10.0	23.0		665.8716393380018	4.999723204004113
49.0	667.4569980499946	stim	6		18	1.0	0.55	10.0	23.0		670.871362542006	0.2999929700017674
49.0	667.7569910199963	stim	7		18	1.0	0.55	10.0	23.0		671.1713555120077	0.29946433199802414
49.0	668.0564553519944	stim	8		36	1.0	0.55	10.0	23.0		671.4708198440057	0.6005409119970864
49.0	668.6569962639915	stim	9		30	1.0	0.55	10.0	23.0		672.0713607560028	0.5072473050095141
49.0	669.1597239749972	response	9	j		1.0	0.55	10.0	23.0		672.5740884670086	
49.0	669.164243569001	choice	9		240					1.0	672.5786080610123	3.491611812991323
50.0	672.6558553819923	stim	0		15	1.0	0.55	20.0	80.0		676.0702198740037	0.2501383320050081
50.0	672.9059937139973	stim	1		18	1.0	0.55	20.0	80.0		676.3203582060087	0.2999727580026956
50.0	673.205966472	stim	2		18	1.0	0.55	20.0	80.0		676.6203309640114	0.2998457459907513
50.0	673.5058122179908	stim	3		30	1.0	0.55	20.0	80.0		676.9201767100021	0.5005301339988364
50.0	674.0063423519896	stim	4		29	1.0	0.55	20.0	80.0		677.420706844001	0.5915404800034594
50.0	674.597882831993	stim	5		300	1.0	0.55	20.0	80.0		678.0122473240044	5.008763599995291
50.0	679.6066464319883	stim	6		18	1.0	0.55	20.0	80.0		683.0210109239997	0.29984061200229917
50.0	679.9064870439906	stim	7		18	1.0	0.55	20.0	80.0		683.320851536002	0.32100696400448214
50.0	680.2274940079951	stim	8		15	1.0	0.55	20.0	80.0		683.6418585000065	0.5869383880053647
50.0	680.8144323960005	stim	9		6	1.0	0.55	20.0	80.0		684.2287968880119	0.10710471299535129
50.0	680.9166080509895	response	9	k		1.0	0.55	20.0	80.0		684.3309725430008	
50.0	680.9215371089958	choice	9		239					2.0	684.3359016010072	3.875834214995848
3.0	684.7973713239917	stim	0		297						688.211735816003	5.009094840002945
51.0	689.8064661639946	stim	0		15	0.55	1.0	16.0	14.0		693.220830656006	0.25001401599729434
51.0	690.0564801799919	stim	1		18	0.55	1.0	16.0	14.0		693.4708446720033	0.2999412290082546
51.0	690.3564214090002	stim	2		18	0.55	1.0	16.0	14.0		693.7707859010115	0.3003775559918722
51.0	690.656798964992	stim	3		30	0.55	1.0	16.0	14.0		694.0711634570034	0.49930227400909644
51.0	691.1561012390011	stim	4		36	0.55	1.0	16.0	14.0		694.5704657310125	0.6006776129943319
51.0	691.7567788519955	stim	5		300	0.55	1.0	16.0	14.0		695.1711433440069	4.999946834999719
51.0	696.7567256869952	stim	6		18	0.55	1.0	16.0	14.0		700.1710901790066	0.2999776259966893
51.0	697.0567033129919	stim	7		18	0.55	1.0	16.0	14.0		700.4710678050033	0.29954229200666305
51.0	697.3562456049985	stim	8		36	0.55	1.0	16.0	14.0		700.7706100970099	0.6004190889943857
51.0	697.9566646939929	stim	9		68	0.55	1.0	16.0	14.0		701.3710291860043	1.1397042390017305
51.0	699.0918216739956	response	9	k		0.55	1.0	16.0	14.0		702.506186166007	
51.0	699.0963689329947	choice	9		240					2.0	702.510733425006	2.860261231995537
52.0	701.9566301649902	stim	0		15	0.55	1.0	11.0	7.0		705.3709946570016	0.24982988501142245
52.0	702.2064600500016	stim	1		18	0.55	1.0	11.0	7.0		705.620824542013	0.3002694009919651
52.0	702.5067294509936	stim	2		18	0.55	1.0	11.0	7.0		705.921093943005	0.2998738099995535
52.0	702.8066032609931	stim	3		30	0.55	1.0	11.0	7.0		706.2209677530045	0.49968722800258547
52.0	703.3062904889957	stim	4		36	0.55	1.0	11.0	7.0		706.7206549810071	0.6003668140037917
52.0	703.9066573029995	stim	5		300	0.55	1.0	11.0	7.0		707.3210217950109	4.999640662994352
52.0	708.9062979659939	stim	6		18	0.55	1.0	11.0	7.0		712.3206624580052	0.2995007790013915
52.0	709.2057987449953	stim	7		18	0.55	1.0	11.0	7.0		712.6201632370066	0.3001148879993707
52.0	709.5059136329946	stim	8		36	0.55	1.0	11.0	7.0		712.920278125006	0.6002504130010493
52.0	710.1061640459957	stim	9		34	0.55	1.0	11.0	7.0		713.520528538007	0.5741755789931631
52.0	710.6754564079893	response	9	j		0.55	1.0	11.0	7.0		714.0898209000006	
52.0	710.6803396249888	choice	9		240					1.0	714.0947041170002	3.4259768839983735
53.0	714.1063165089872	stim	0		15	0.55	1.0	80.0	20.0		717.5206810009986	0.250088193002739
53.0	714.35640470199	stim	1		18	0.55	1.0	80.0	20.0		717.7707691940013	0.2999987850053003
53.0	714.6564034869953	stim	2		18	0.55	1.0	80.0	20.0		718.0707679790066	0.29999805099214427
53.0	714.9564015379874	stim	3		30	0.55	1.0	80.0	20.0		718.3707660299988	0.5199113140115514
53.0	715.476312851999	stim	4		15	0.55	1.0	80.0	20.0		718.8906773440103	0.5873274449986639
53.0	716.0636402969976	stim	5		299	0.55	1.0	80.0	20.0		719.478004789009	4.992675521003548
53.0	721.0563158180012	stim	6		18	0.55	1.0	80.0	20.0		724.4706803100125	0.2995526619924931
53.0	721.3558684799937	stim	7		18	0.55	1.0	80.0	20.0		724.770232972005	0.29975093800749164
53.0	721.6556194180012	stim	8		36	0.55	1.0	80.0	20.0		725.0699839100125	0.6007281939964741
53.0	722.2563476119976	stim	9		20	0.55	1.0	80.0	20.0		725.670712104009	0.3398030749958707
53.0	722.591569347991	response	9	j		0.55	1.0	80.0	20.0		726.0059338400024	
53.0	722.5961506869935	choice	9		240					1.0	726.0105151790049	3.66000893599994
54.0	726.2561596229934	stim	0		15	0.55	1.0	79.0	28.0		729.6705241150048	0.2499758009944344
54.0	726.5061354239879	stim	1		18	0.55	1.0	79.0	28.0		729.9204999159992	0.30011296400334686
54.0	726.8062483879912	stim	2		18	0.55	1.0	79.0	28.0		730.2206128800026	0.2999015870009316
54.0	727.1061499749921	stim	3		30	0.55	1.0	79.0	28.0		730.5205144670035	0.5211209690023679
54.0	727.6272709439945	stim	4		15	0.55	1.0	79.0	28.0		731.0416354360059	0.5865208420000272
54.0	728.2137917859945	stim	5		298	0.55	1.0	79.0	28.0		731.6281562780059	4.992313858994748
54.0	733.2061056449893	stim	6		18	0.55	1.0	79.0	28.0		736.6204701370007	0.30001638500834815
54.0	733.5061220299976	stim	7		18	0.55	1.0	79.0	28.0		736.920486522009	0.30165526999917347
54.0	733.8077772999968	stim	8		29	0.55	1.0	79.0	28.0		737.2221417920082	0.5945748090016423
54.0	734.4023521089985	stim	9		26	0.55	1.0	79.0	28.0		737.8167166010098	0.4354493739956524
54.0	734.8325412439881	response	9	j		0.55	1.0	79.0	28.0		738.2469057359995	
54.0	734.8378014829941	choice	9		240					1.0	738.2521659750055	3.558995044993935
55.0	738.396796527988	stim	0		15	0.55	1.0	94.0	28.0		741.8111610199994	0.24991884701012168
55.0	738.6467153749982	stim	1		18	0.55	1.0	94.0	28.0		742.0610798670095	0.2997431269905064
55.0	738.9464585019887	stim	2		18	0.55	1.0	94.0	28.0		742.360822994	0.30031952500576153
55.0	739.2467780269944	stim	3		30	0.55	1.0	94.0	28.0		742.6611425190058	0.538054877994
55.0	739.7848329049884	stim	4		13	0.55	1.0	94.0	28.0		743.1991973969998	0.5648834610037738
55.0	740.3497163659922	stim	5		299	0.55	1.0	94.0	28.0		743.7640808580036	4.996581236002385
55.0	745.3462976019946	stim	6		18	0.55	1.0	94.0	28.0		748.760662094006	0.3000816040002974
55.0	745.464268855998	response	6	k		0.55	1.0	94.0	28.0		748.8786333480093	
55.0	745.6463792059949	stim	7		18	0.55	1.0	94.0	28.0		749.0607436980063	0.307524812000338
55.0	745.9539040179952	stim	8		15	0.55	1.0	94.0	28.0		749.3682685100066	0.358824294002261
55.0	746.2981153829896	response	8	j		0.55	1.0	94.0	28.0		749.712479875001	
55.0	746.3127283119975	choice	8		26					1.0	749.7270928040089	0.23564105399418622
55.0	746.5483693659917	stim	9		240	0.55	1.0	94.0	28.0		749.962733858003	4.007089858001564
56.0	750.5554592239932	stim	0		15	0.55	1.0	16.0	10.0		753.9698237160046	0.25008224400517065
56.0	750.8055414679984	stim	1		18	0.55	1.0	16.0	10.0		754.2199059600098	0.3000626309949439
56.0	751.1056040989934	stim	2		18	0.55	1.0	16.0	10.0		754.5199685910047	0.2999742399988463
56.0	751.4055783389922	stim	3		30	0.55	1.0	16.0	10.0		754.8199428310036	0.499630865000654
56.0	751.9052092039929	stim	4		36	0.55	1.0	16.0	10.0		755.3195736960042	0.6003346969955601
56.0	752.5055439009884	stim	5		300	0.55	1.0	16.0	10.0		755.9199083929998	5.000027941001463
56.0	757.5055718419899	stim	6		18	0.55	1.0	16.0	10.0		760.9199363340012	0.3001129900076194
56.0	757.8056848319975	stim	7		18	0.55	1.0	16.0	10.0		761.2200493240089	0.29981660000339616
56.0	758.1055014320009	stim	8		36	0.55	1.0	16.0	10.0		761.5198659240123	0.5998504969902569
56.0	758.7053519289911	stim	9		22	0.55	1.0	16.0	10.0		762.1197164210025	0.374203558996669
56.0	759.0747359309898	response	9	k		0.55	1.0	16.0	10.0		762.4891004230012	
56.0	759.0795554879878	choice	9		240					2.0	762.4939199799992	3.625672538008075
57.0	762.7052280259959	stim	0		15	0.55	1.0	9.0	7.0		766.1195925180073	0.2500432910019299
57.0	762.9552713169978	stim	1		18	0.55	1.0	9.0	7.0		766.3696358090092	0.3000413659901824
57.0	763.255312682988	stim	2		18	0.55	1.0	9.0	7.0		766.6696771749994	0.29995191100169905
57.0	763.5552645939897	stim	3		30	0.55	1.0	9.0	7.0		766.9696290860011	0.4997643649985548
57.0	764.0550289589883	stim	4		36	0.55	1.0	9.0	7.0		767.4693934509996	0.6001623270130949
57.0	764.6551912860014	stim	5		300	0.55	1.0	9.0	7.0		768.0695557780127	5.000292826996883
57.0	769.6554841129982	stim	6		18	0.55	1.0	9.0	7.0		773.0698486050096	0.30000426300102845
57.0	769.9554883759993	stim	7		18	0.55	1.0	9.0	7.0		773.3698528680106	0.2999989999952959
57.0	770.2554873759946	stim	8		36	0.55	1.0	9.0	7.0		773.6698518680059	0.5997786630032351
57.0	770.8552660389978	stim	9		32	0.55	1.0	9.0	7.0		774.2696305310092	0.5401343849953264
57.0	771.3908738719911	response	9	k		0.55	1.0	9.0	7.0		774.8052383640024	
57.0	771.3954004239931	choice	9		240					2.0	774.8097649160045	3.4600377599999774
58.0	774.8554381839931	stim	0		15	0.55	1.0	28.0	14.0		778.2698026760045	0.24992114400083665
58.0	775.1053593279939	stim	1		18	0.55	1.0	28.0	14.0		778.5197238200053	0.3000982509984169
58.0	775.4054575789924	stim	2		18	0.55	1.0	28.0	14.0		778.8198220710037	0.2998093560017878
58.0	775.7052669349941	stim	3		30	0.55	1.0	28.0	14.0		779.1196314270055	0.5014866620040266
58.0	776.2067535969982	stim	4		27	0.55	1.0	28.0	14.0		779.6211180890095	0.6062396449997323
58.0	776.8129932419979	stim	5		299	0.55	1.0	28.0	14.0		780.2273577340093	4.992234145000111
58.0	781.805227386998	stim	6		18	0.55	1.0	28.0	14.0		785.2195918790094	0.3000454299908597
58.0	782.1052728169889	stim	7		18	0.55	1.0	28.0	14.0		785.5196373090002	0.29965013000764884
58.0	782.4049229469965	stim	8		36	0.55	1.0	28.0	14.0		785.8192874390079	0.6000774449930759
58.0	783.0050003919896	stim	9		25	0.55	1.0	28.0	14.0		786.419364884001	0.42409764901094604
58.0	783.4241801780008	response	9	k		0.55	1.0	28.0	14.0		786.8385446700122	
58.0	783.4290980410005	choice	9		240					2.0	786.8434625330119	3.575890215986874
59.0	787.0049882569874	stim	0		15	0.55	1.0	56.0	14.0		790.4193527489988	0.2502069900074275
59.0	787.2551952469948	stim	1		18	0.55	1.0	56.0	14.0		790.6695597390062	0.29997863099561073
59.0	787.5551738779905	stim	2		18	0.55	1.0	56.0	14.0		790.9695383700018	0.2999953840044327
59.0	787.8551692619949	stim	3		30	0.55	1.0	56.0	14.0		791.2695337540063	0.5117975460016169
59.0	788.3669668079965	stim	4		24	0.55	1.0	56.0	14.0		791.7813313000079	0.5710428439924726
59.0	788.938009651989	stim	5		301	0.55	1.0	56.0	14.0		792.3523741440004	5.016772932009189
59.0	793.9547825839982	stim	6		18	0.55	1.0	56.0	14.0		797.3691470760095	0.29995173099450767
59.0	794.2547343149927	stim	7		18	0.55	1.0	56.0	14.0		797.669098807004	0.29965196100238245
59.0	794.5543862759951	stim	8		36	0.55	1.0	56.0	14.0		797.9687507680064	0.6004192120017251
59.0	795.1548054879968	stim	9		37	0.55	1.0	56.0	14.0		798.5691699800082	0.6235697869997239
59.0	795.7739767169987	response	9	j		0.55	1.0	56.0	14.0		799.1883412090101	
59.0	795.7783752749965	choice	9		240					1.0	799.1927397670079	3.376588842002093
60.0	799.1549641169986	stim	0		15	0.55	1.0	40.0	10.0		802.56932860901	0.24994492500263732
60.0	799.4049090420012	stim	1		17	0.55	1.0	40.0	10.0		802.8192735340126	0.28296945898910053
60.0	799.6878785009903	stim	2		19	0.55	1.0	40.0	10.0		803.1022429930017	0.3169906960101798
60.0	800.0048691970005	stim	3		30	0.55	1.0	40.0	10.0		803.4192336890119	0.5064341069955844
60.0	800.5113033039961	stim	4		32	0.55	1.0	40.0	10.0		803.9256677960075	0.5928437949914951
60.0	801.1041470989876	stim	5		300	0.55	1.0	40.0	10.0		804.518511590999	5.000782455012086
60.0	806.1049295539997	stim	6		18	0.55	1.0	40.0	10.0		809.519294046011	0.29990069998893887
60.0	806.4048302539886	stim	7		18	0.55	1.0	40.0	10.0		809.819194746	0.2997495070012519
60.0	806.7045797609899	stim	8		36	0.55	1.0	40.0	10.0		810.1189442530012	0.600136631008354
60.0	807.3047163919982	stim	9		23	0.55	1.0	40.0	10.0		810.7190808840096	0.3904786100029014
60.0	807.6904511780012	response	9	j		0.55	1.0	40.0	10.0		811.1048156700126	
60.0	807.6951950020011	choice	9		240					1.0	811.1095594940125	3.60966160899261
4.0	811.3048566109937	stim	0		160						814.7192211030051	2.666254365001805
4.0	813.957226849001	response	0	space							817.3715913410124	
4.0	813.9711109759955	stim	0		301						817.3854754680069	5.016867197002284
61.0	818.9879781729978	stim	0		15	0.55	1.0	16.0	7.0		822.4023426650092	0.2500781819981057
61.0	819.2380563549959	stim	1		18	0.55	1.0	16.0	7.0		822.6524208470073	0.299966124992352
61.0	819.5380224799883	stim	2		18	0.55	1.0	16.0	7.0		822.9523869719997	0.30001174900098704
61.0	819.8380342289893	stim	3		30	0.55	1.0	16.0	7.0		823.2523987210006	0.4993001180118881
61.0	820.3373343470012	stim	4		36	0.55	1.0	16.0	7.0		823.7516988390125	0.6005816949909786
61.0	820.9379160419921	stim	5		300	0.55	1.0	16.0	7.0		824.3522805340035	4.99919955500809
61.0	825.9371155970002	stim	6		18	0.55	1.0	16.0	7.0		829.3514800890116	0.30077144999813754
61.0	826.2378870469984	stim	7		18	0.55	1.0	16.0	7.0		829.6522515390097	0.299997470996459
61.0	826.5378845179948	stim	8		36	0.55	1.0	16.0	7.0		829.9522490100062	0.5998383419937454
61.0	827.1377228599886	stim	9		29	0.55	1.0	16.0	7.0		830.552087352	0.4906742700113682
61.0	827.6236964900017	response	9	k		0.55	1.0	16.0	7.0		831.0380609820131	
61.0	827.6283971299999	choice	9		240					2.0	831.0427616220113	3.509020869998494
62.0	831.1374179999984	stim	0		15	0.55	1.0	66.0	28.0		834.5517824920098	0.25036508799530566
62.0	831.3877830879937	stim	1		18	0.55	1.0	66.0	28.0		834.8021475800051	0.2999801380065037
62.0	831.6877632260002	stim	2		18	0.55	1.0	66.0	28.0		835.1021277180116	0.29996620399469975
62.0	831.9877294299949	stim	3		30	0.55	1.0	66.0	28.0		835.4020939220063	0.5145537289936328
62.0	832.5022831589886	stim	4		17	0.55	1.0	66.0	28.0		835.916647651	0.5931058070127619
62.0	833.0953889660013	stim	5		299	0.55	1.0	66.0	28.0		836.5097534580127	4.982637455992517
62.0	838.0780264219939	stim	6		18	0.55	1.0	66.0	28.0		841.4923909140052	0.3003636119974544
62.0	838.3783900339913	stim	7		18	0.55	1.0	66.0	28.0		841.7927545260027	0.30815227000857703
62.0	838.6865423039999	stim	8		26	0.55	1.0	66.0	28.0		842.1009067960113	0.5922224709938746
62.0	839.2787647749938	stim	9		16	0.55	1.0	66.0	28.0		842.6931292670051	0.2827988149947487
62.0	839.5566136159905	response	9	k		0.55	1.0	66.0	28.0		842.9709781080019	
62.0	839.5615635899885	choice	9		240					2.0	842.9759280819999	3.7256554850027896
63.0	843.2872190749913	stim	0		15	0.55	1.0	33.0	28.0		846.7015835670027	0.25000715600617696
63.0	843.5372262309975	stim	1		18	0.55	1.0	33.0	28.0		846.9515907230088	0.3001413869933458
63.0	843.8373676179908	stim	2		18	0.55	1.0	33.0	28.0		847.2517321100022	0.29989993100753054
63.0	844.1372675489984	stim	3		30	0.55	1.0	33.0	28.0		847.5516320410097	0.5031812819943298
63.0	844.6404488309927	stim	4		35	0.55	1.0	33.0	28.0		848.054813323004	0.5800219230004586
63.0	845.2204707539931	stim	5		301	0.55	1.0	33.0	28.0		848.6348352460045	5.016978558007395
63.0	850.2374493120005	stim	6		18	0.55	1.0	33.0	28.0		853.6518138040119	0.2998731199913891
63.0	850.5373224319919	stim	7		18	0.55	1.0	33.0	28.0		853.9516869240033	0.3010534619970713
63.0	850.838375893989	stim	8		28	0.55	1.0	33.0	28.0		854.2527403860004	0.5904995029995916
63.0	851.4288753969886	stim	9		30	0.55	1.0	33.0	28.0		854.843239889	0.5065754200040828
63.0	851.9305100899946	response	9	j		0.55	1.0	33.0	28.0		855.344874582006	
63.0	851.9354508169927	choice	9		239					1.0	855.349815309004	3.4922433710016776
64.0	855.4276941879943	stim	0		15	0.55	1.0	47.0	20.0		858.8420586800057	0.24953992500377353
64.0	855.6772341129981	stim	1		18	0.55	1.0	47.0	20.0		859.0915986050095	0.3143783010018524
64.0	855.991612414	stim	2		17	0.55	1.0	47.0	20.0		859.4059769060113	0.2939515039906837
64.0	856.2855639179907	stim	3		30	0.55	1.0	47.0	20.0		859.699928410002	0.5081727090000641
64.0	856.7937366269907	stim	4		20	0.55	1.0	47.0	20.0		860.2081011190021	0.5840938280016417
64.0	857.3778304549924	stim	5		298	0.55	1.0	47.0	20.0		860.7921949470037	5.009257790006814
64.0	862.3870882449992	stim	6		18	0.55	1.0	47.0	20.0		865.8014527370105	0.3001222179882461
64.0	862.6872104629874	stim	7		18	0.55	1.0	47.0	20.0		866.1015749549988	0.29956881201360375
64.0	862.986779275001	stim	8		36	0.55	1.0	47.0	20.0		866.4011437670124	0.6004269679979188
64.0	863.587206242999	stim	9		21	0.55	1.0	47.0	20.0		867.0015707350103	0.35744297099881805
64.0	863.939611416994	response	9	j		0.55	1.0	47.0	20.0		867.3539759090054	
64.0	863.9446492139978	choice	9		240					1.0	867.3590137060091	3.642481292001321
65.0	867.5871305059991	stim	0		15	0.55	1.0	23.0	10.0		871.0014949980105	0.2500722440017853
65.0	867.8372027500009	stim	1		18	0.55	1.0	23.0	10.0		871.2515672420122	0.2999488249915885
65.0	868.1371515749925	stim	2		18	0.55	1.0	23.0	10.0		871.5515160670038	0.29994373400404584
65.0	868.4370953089965	stim	3		30	0.55	1.0	23.0	10.0		871.8514598010079	0.49942048199591227
65.0	868.9365157909924	stim	4		36	0.55	1.0	23.0	10.0		872.3508802830038	0.5998675270093372
65.0	869.5363833180018	stim	5		300	0.55	1.0	23.0	10.0		872.9507478100131	4.999991863995092
65.0	874.5363751819968	stim	6		18	0.55	1.0	23.0	10.0		877.9507396740082	0.3003342279989738
65.0	874.8367094099958	stim	7		18	0.55	1.0	23.0	10.0		878.2510739020072	0.3000196909997612
65.0	875.1367291009956	stim	8		36	0.55	1.0	23.0	10.0		878.551093593007	0.6002791460050503
65.0	875.7370082470006	stim	9		19	0.55	1.0	23.0	10.0		879.151372739012	0.32339757299632765
65.0	876.0557302709931	response	9	k		0.55	1.0	23.0	10.0		879.4700947630045	
65.0	876.060405819997	choice	9		240					2.0	879.4747703120083	3.676522670997656
66.0	879.7369284909946	stim	0		15	0.55	1.0	40.0	20.0		883.151292983006	0.2500725599966245
66.0	879.9870010509912	stim	1		18	0.55	1.0	40.0	20.0		883.4013655430026	0.29940328300290275
66.0	880.2864043339941	stim	2		18	0.55	1.0	40.0	20.0		883.7007688260055	0.3003193309996277
66.0	880.5867236649938	stim	3		30	0.55	1.0	40.0	20.0		884.0010881570051	0.5056557320058346
66.0	881.0923793969996	stim	4		31	0.55	1.0	40.0	20.0		884.506743889011	0.577214806995471
66.0	881.6695942039951	stim	5		301	0.55	1.0	40.0	20.0		885.0839586960064	5.0172579049976775
66.0	886.6868521089928	stim	6		18	0.55	1.0	40.0	20.0		890.1012166010041	0.29994668600556906
66.0	886.9867987949983	stim	7		18	0.55	1.0	40.0	20.0		890.4011632870097	0.29933675700158346
66.0	887.2861355519999	stim	8		31	0.55	1.0	40.0	20.0		890.7005000440113	0.6081166349904379
66.0	887.8942521869903	stim	9		22	0.55	1.0	40.0	20.0		891.3086166790017	0.3727106120059034
66.0	888.2473494229926	response	9	k		0.55	1.0	40.0	20.0		891.6617139150039	
66.0	888.2669627989962	choice	9		239					2.0	891.6813272910076	3.619432991996291
67.0	891.8863957909925	stim	0		15	0.55	1.0	47.0	28.0		895.3007602830039	0.25002452899934724
67.0	892.1364203199919	stim	1		18	0.55	1.0	47.0	28.0		895.5507848120033	0.3000269250042038
67.0	892.4364472449961	stim	2		18	0.55	1.0	47.0	28.0		895.8508117370075	0.300005899000098
67.0	892.7364531439962	stim	3		30	0.55	1.0	47.0	28.0		896.1508176360076	0.5083909969980596
67.0	893.2448441409942	stim	4		28	0.55	1.0	47.0	28.0		896.6592086330056	0.5916517639998347
67.0	893.8364959049941	stim	5		300	0.55	1.0	47.0	28.0		897.2508603970055	5.000093751994427
67.0	898.8365896569885	stim	6		18	0.55	1.0	47.0	28.0		902.2509541489999	0.3001082039991161
67.0	899.1366978609876	stim	7		18	0.55	1.0	47.0	28.0		902.551062352999	0.3019200960115995
67.0	899.4386179569992	stim	8		30	0.55	1.0	47.0	28.0		902.8529824490106	0.5902053059980972
67.0	900.0288232629973	stim	9		35	0.55	1.0	47.0	28.0		903.4431877550087	0.5820132660010131
67.0	900.6059057730017	response	9	k		0.55	1.0	47.0	28.0		904.0202702650131	
67.0	900.6108365289983	choice	9		241					2.0	904.0252010210097	3.425479015990277
68.0	904.0363155449886	stim	0		15	0.55	1.0	14.0	10.0		907.450680037	0.2502051220071735
68.0	904.2865206669958	stim	1		18	0.55	1.0	14.0	10.0		907.7008851590072	0.30007100199873094
68.0	904.5865916689945	stim	2		18	0.55	1.0	14.0	10.0		908.0009561610059	0.2989881859975867
68.0	904.8855798549921	stim	3		30	0.55	1.0	14.0	10.0		908.2999443470035	0.500063419007347
68.0	905.3856432739994	stim	4		36	0.55	1.0	14.0	10.0		908.8000077660108	0.601005003991304
68.0	905.9866482779908	stim	5		300	0.55	1.0	14.0	10.0		909.4010127700021	4.9997777420066996
68.0	910.9864260199975	stim	6		18	0.55	1.0	14.0	10.0		914.4007905120088	0.29991793699446134
68.0	911.2863439569919	stim	7		18	0.55	1.0	14.0	10.0		914.7007084490033	0.29967029800172895
68.0	911.5860142549936	stim	8		36	0.55	1.0	14.0	10.0		915.000378747005	0.6003894370078342
68.0	912.1864036920015	stim	9		19	0.55	1.0	14.0	10.0		915.6007681840128	0.3228670159878675
68.0	912.504691544993	response	9	j		0.55	1.0	14.0	10.0		915.9190560370043	
68.0	912.5092707079893	choice	9		240					1.0	915.9236352000007	3.677006922007422
69.0	916.1862776299968	stim	0		15	0.55	1.0	19.0	14.0		919.6006421220081	0.2499667939991923
69.0	916.436244423996	stim	1		18	0.55	1.0	19.0	14.0		919.8506089160073	0.2999537769937888
69.0	916.7361982009897	stim	2		18	0.55	1.0	19.0	14.0		920.1505626930011	0.30007100199873094
69.0	917.0362692029885	stim	3		30	0.55	1.0	19.0	14.0		920.4506336949999	0.5152851020102389
69.0	917.5515543049987	stim	4		29	0.55	1.0	19.0	14.0		920.9659187970101	0.5801034280011663
69.0	918.1316577329999	stim	5		300	0.55	1.0	19.0	14.0		921.5460222250113	5.004561353998724
69.0	923.1362190869986	stim	6		18	0.55	1.0	19.0	14.0		926.55058357901	0.2999376929947175
69.0	923.4361567799933	stim	7		18	0.55	1.0	19.0	14.0		926.8505212720047	0.2996570179966511
69.0	923.73581379799	stim	8		36	0.55	1.0	19.0	14.0		927.1501782900013	0.6002566420065705
69.0	924.3360704399965	stim	9		21	0.55	1.0	19.0	14.0		927.7504349320079	0.35749879699142184
69.0	924.6886941400007	response	9	k		0.55	1.0	19.0	14.0		928.1030586320121	
69.0	924.693569236988	choice	9		240					2.0	928.1079337289993	3.64246327400906
70.0	928.336032510997	stim	0		15	0.55	1.0	28.0	20.0		931.7503970030084	0.2501162879925687
70.0	928.5861487989896	stim	1		18	0.55	1.0	28.0	20.0		932.000513291001	0.3000622370018391
70.0	928.8862110359914	stim	2		18	0.55	1.0	28.0	20.0		932.3005755280028	0.2999430490017403
70.0	929.1861540849932	stim	3		30	0.55	1.0	28.0	20.0		932.6005185770046	0.501441515996703
70.0	929.6875956009899	stim	4		26	0.55	1.0	28.0	20.0		933.1019600930013	0.5893298840092029
70.0	930.2769254849991	stim	5		300	0.55	1.0	28.0	20.0		933.6912899770105	4.999505393992877
70.0	935.276430878992	stim	6		18	0.55	1.0	28.0	20.0		938.6907953710033	0.3003034400026081
70.0	935.5767343189946	stim	7		18	0.55	1.0	28.0	20.0		938.9910988110059	0.3045524269982707
70.0	935.8812867459928	stim	8		30	0.55	1.0	28.0	20.0		939.2956512380042	0.6117178330023307
70.0	936.4930045789952	stim	9		28	0.55	1.0	28.0	20.0		939.9073690710065	0.4744054769980721
70.0	936.9622079069959	response	9	k		0.55	1.0	28.0	20.0		940.3765723990073	
70.0	936.9674100559932	choice	9		239					2.0	940.3817745480046	3.518199052006821
4.0	940.4856091080001	stim	0		300						943.8999736000114	5.000088618995505
71.0	945.4856977269956	stim	0		15	1.0	0.55	28.0	94.0		948.9000622190069	0.25012929299555253
71.0	945.7358270199911	stim	1		18	1.0	0.55	28.0	94.0		949.1501915120025	0.3000798209977802
71.0	946.0359068409889	stim	2		18	1.0	0.55	28.0	94.0		949.4502713330003	0.2996111690008547
71.0	946.3355180099898	stim	3		30	1.0	0.55	28.0	94.0		949.7498825020011	0.5017848999996204
71.0	946.8373029099894	stim	4		29	1.0	0.55	28.0	94.0		950.2516674020007	0.6061595970095368
71.0	947.4434625069989	stim	5		299	1.0	0.55	28.0	94.0		950.8578269990103	4.992296504002297
71.0	952.4357590110012	stim	6		18	1.0	0.55	28.0	94.0		955.8501235030126	0.29977629099448677
71.0	952.7355353019957	stim	7		18	1.0	0.55	28.0	94.0		956.1498997940071	0.32875077400240116
71.0	953.0642860759981	stim	8		13	1.0	0.55	28.0	94.0		956.4786505680095	0.5647208329901332
71.0	953.6290069089882	stim	9		58	1.0	0.55	28.0	94.0		957.0433714009996	0.9713833380083088
71.0	954.5954220279964	response	9	k		1.0	0.55	28.0	94.0		958.0097865200078	
71.0	954.6003902469965	choice	9		240					2.0	958.0147547390079	3.034874157005106
72.0	957.6352644040016	stim	0		15	1.0	0.55	7.0	8.0		961.049628896013	0.24999714799923822
72.0	957.8852615520009	stim	1		18	1.0	0.55	7.0	8.0		961.2996260440123	0.3004835519968765
72.0	958.1857451039978	stim	2		18	1.0	0.55	7.0	8.0		961.6001095960091	0.29991249900194816
72.0	958.4856576029997	stim	3		30	1.0	0.55	7.0	8.0		961.9000220950111	0.49982105199887883
72.0	958.9854786549986	stim	4		36	1.0	0.55	7.0	8.0		962.39984314701	0.6001332239975454
72.0	959.5856118789961	stim	5		300	1.0	0.55	7.0	8.0		962.9999763710075	4.999912312996457
72.0	964.5855241919926	stim	6		18	1.0	0.55	7.0	8.0		967.999888684004	0.3000547470001038
72.0	964.8855789389927	stim	7		18	1.0	0.55	7.0	8.0		968.2999434310041	0.2995967530005146
72.0	965.1851756919932	stim	8		36	1.0	0.55	7.0	8.0		968.5995401840046	0.6001917170069646
72.0	965.7853674090002	stim	9		75	1.0	0.55	7.0	8.0		969.1997319010115	1.2569917270011501
72.0	967.0376444499998	response	9	j		1.0	0.55	7.0	8.0		970.4520089420112	
72.0	967.0423591360013	choice	9		240					1.0	970.4567236280127	2.742892178997863
73.0	969.7852513149992	stim	0		15	1.0	0.55	14.0	19.0		973.1996158070106	0.2501474500022596
73.0	970.0353987650014	stim	1		18	1.0	0.55	14.0	19.0		973.4497632570128	0.2998657579883002
73.0	970.3352645229897	stim	2		18	1.0	0.55	14.0	19.0		973.7496290150011	0.2997260880074464
73.0	970.6349906109972	stim	3		30	1.0	0.55	14.0	19.0		974.0493551030086	0.500099828990642
73.0	971.1350904399878	stim	4		36	1.0	0.55	14.0	19.0		974.5494549319992	0.6002974460134283
73.0	971.7353878860013	stim	5		300	1.0	0.55	14.0	19.0		975.1497523780126	4.999953148988425
73.0	976.7353410349897	stim	6		18	1.0	0.55	14.0	19.0		980.1497055270011	0.29999772099836264
73.0	977.035338755988	stim	7		18	1.0	0.55	14.0	19.0		980.4497032479994	0.2992853410105454
73.0	977.3346240969986	stim	8		36	1.0	0.55	14.0	19.0		980.74898858901	0.6006252450024476
73.0	977.935249342001	stim	9		43	1.0	0.55	14.0	19.0		981.3496138340124	0.7241160769917769
73.0	978.6543445040006	response	9	j		1.0	0.55	14.0	19.0		982.068708996012	
73.0	978.6593654189928	choice	9		240					1.0	982.0737299110042	3.275857200002065
74.0	981.9352226189949	stim	0		15	1.0	0.55	7.0	16.0		985.3495871110063	0.2500255259947153
74.0	982.1852481449896	stim	1		18	1.0	0.55	7.0	16.0		985.599612637001	0.30003306100843474
74.0	982.485281205998	stim	2		18	1.0	0.55	7.0	16.0		985.8996456980094	0.2996888380002929
74.0	982.7849700439983	stim	3		30	1.0	0.55	7.0	16.0		986.1993345360097	0.5000250430020969
74.0	983.2849950870004	stim	4		36	1.0	0.55	7.0	16.0		986.6993595790118	0.6000749569939217
74.0	983.8850700439943	stim	5		300	1.0	0.55	7.0	16.0		987.2994345360057	4.999198516001343
74.0	988.8842685599957	stim	6		18	1.0	0.55	7.0	16.0		992.2986330520071	0.3007337320013903
74.0	989.1850022919971	stim	7		18	1.0	0.55	7.0	16.0		992.5993667840085	0.29956082699936815
74.0	989.4845631189964	stim	8		36	1.0	0.55	7.0	16.0		992.8989276110078	0.5995373399928212
74.0	990.0841004589893	stim	9		59	1.0	0.55	7.0	16.0		993.4984649510006	0.991542087009293
74.0	991.0708272829943	response	9	j		1.0	0.55	7.0	16.0		994.4851917750057	
74.0	991.0756425459986	choice	9		240					1.0	994.4900070380099	3.0093442969955504
75.0	994.0849868429941	stim	0		15	1.0	0.55	10.0	16.0		997.4993513350055	0.2499760829959996
75.0	994.3349629259901	stim	1		18	1.0	0.55	10.0	16.0		997.7493274180015	0.30004850700788666
75.0	994.635011432998	stim	2		18	1.0	0.55	10.0	16.0		998.0493759250094	0.2999531230016146
75.0	994.9349645559996	stim	3		30	1.0	0.55	10.0	16.0		998.349329048011	0.49975138799345586
75.0	995.4347159439931	stim	4		36	1.0	0.55	10.0	16.0		998.8490804360044	0.6003200450068107
75.0	996.0350359889999	stim	5		300	1.0	0.55	10.0	16.0		999.4494004810113	4.999582748001558
75.0	1001.0346187370014	stim	6		18	1.0	0.55	10.0	16.0		1004.4489832290128	0.30027512699598446
75.0	1001.3348938639974	stim	7		18	1.0	0.55	10.0	16.0		1004.7492583560088	0.29957082399050705
75.0	1001.6344646879879	stim	8		36	1.0	0.55	10.0	16.0		1005.0488291799993	0.600380601012148
75.0	1002.2348452890001	stim	9		60	1.0	0.55	10.0	16.0		1005.6492097810115	1.0068257719976828
75.0	1003.2370587399928	response	9	j		1.0	0.55	10.0	16.0		1006.6514232320042	
75.0	1003.2416710609978	choice	9		240					1.0	1006.6560355530091	2.993034079001518
76.0	1006.2347051399993	stim	0		15	1.0	0.55	28.0	112.0		1009.6490696320107	0.2500307339942083
76.0	1006.4847358739935	stim	1		18	1.0	0.55	28.0	112.0		1009.8991003660049	0.3000925590022234
76.0	1006.7848284329957	stim	2		18	1.0	0.55	28.0	112.0		1010.1991929250071	0.29997650199220516
76.0	1007.0848049349879	stim	3		30	1.0	0.55	28.0	112.0		1010.4991694269993	0.5003959610039601
76.0	1007.5852008959919	stim	4		26	1.0	0.55	28.0	112.0		1010.9995653880032	0.5918381160008721
76.0	1008.1770390119927	stim	5		300	1.0	0.55	28.0	112.0		1011.5914035040041	5.00765094300732
76.0	1013.1846899550001	stim	6		18	1.0	0.55	28.0	112.0		1016.5990544470114	0.2999000529962359
76.0	1013.4845900079963	stim	7		18	1.0	0.55	28.0	112.0		1016.8989545000077	0.3355469020025339
76.0	1013.8201369099988	stim	8		12	1.0	0.55	28.0	112.0		1017.2345014020102	0.5929553140013013
76.0	1014.4130922240001	stim	9		38	1.0	0.55	28.0	112.0		1017.8274567160115	0.6365093019994674
76.0	1015.0445475429879	response	9	k		1.0	0.55	28.0	112.0		1018.4589120349992	
76.0	1015.0496015259996	choice	9		238					2.0	1018.463966018011	3.34967488500115
77.0	1018.3992764110008	stim	0		15	1.0	0.55	28.0	39.0		1021.8136409030121	0.2351625679875724
77.0	1018.6344389789883	stim	1		18	1.0	0.55	28.0	39.0		1022.0488034709997	0.30021265501272865
77.0	1018.934651634001	stim	2		18	1.0	0.55	28.0	39.0		1022.3490161260124	0.2999661119974917
77.0	1019.2346177459985	stim	3		30	1.0	0.55	28.0	39.0		1022.6489822380099	0.5017095520015573
77.0	1019.7363272980001	stim	4		27	1.0	0.55	28.0	39.0		1023.1506917900115	0.6056837700016331
77.0	1020.3420110680017	stim	5		299	1.0	0.55	28.0	39.0		1023.7563755600131	4.98285111298901
77.0	1025.3248621809907	stim	6		19	1.0	0.55	28.0	39.0		1028.7392266730021	0.31703178900352214
77.0	1025.6418939699943	stim	7		18	1.0	0.55	28.0	39.0		1029.0562584620056	0.3211469189991476
77.0	1025.9630408889934	stim	8		22	1.0	0.55	28.0	39.0		1029.3774053810048	0.5790964250045363
77.0	1026.542137313998	stim	9		27	1.0	0.55	28.0	39.0		1029.9565018060093	0.45563388799200766
77.0	1026.9931508589943	response	9	j		1.0	0.55	28.0	39.0		1030.4075153510057	
77.0	1026.99777120199	choice	9		239					1.0	1030.4121356940013	3.5363103770068847
78.0	1030.5340815789968	stim	0		15	1.0	0.55	14.0	47.0		1033.9484460710082	0.24968941899714991
78.0	1030.783770997994	stim	1		18	1.0	0.55	14.0	47.0		1034.1981354900054	0.30032915899937507
78.0	1031.0841001569934	stim	2		18	1.0	0.55	14.0	47.0		1034.4984646490047	0.3000217359949602
78.0	1031.3841218929883	stim	3		30	1.0	0.55	14.0	47.0		1034.7984863849997	0.49982517200987786
78.0	1031.8839470649982	stim	4		36	1.0	0.55	14.0	47.0		1035.2983115570096	0.6004238129971782
78.0	1032.4843708779954	stim	5		300	1.0	0.55	14.0	47.0		1035.8987353700068	5.000014941004338
78.0	1037.4843858189997	stim	6		18	1.0	0.55	14.0	47.0		1040.898750311011	0.29995358298765495
78.0	1037.7843394019874	stim	7		18	1.0	0.55	14.0	47.0		1041.1987038939988	0.3093959000107134
78.0	1038.093735301998	stim	8		28	1.0	0.55	14.0	47.0		1041.5080997940095	0.5893113280035323
78.0	1038.6830466300016	stim	9		66	1.0	0.55	14.0	47.0		1042.097411122013	1.1079597689968068
78.0	1039.7863282369944	response	9	j		1.0	0.55	14.0	47.0		1043.2006927290058	
78.0	1039.7910063989984	choice	9		240					1.0	1043.2053708910098	2.892867122995085
79.0	1042.6838735219935	stim	0		15	1.0	0.55	28.0	79.0		1046.098238014005	0.25028077300521545
79.0	1042.9341542949987	stim	1		18	1.0	0.55	28.0	79.0		1046.34851878701	0.29987036300008185
79.0	1043.2340246579988	stim	2		18	1.0	0.55	28.0	79.0		1046.6483891500102	0.2999436109967064
79.0	1043.5339682689955	stim	3		30	1.0	0.55	28.0	79.0		1046.948332761007	0.5019365030020708
79.0	1044.0359047719976	stim	4		29	1.0	0.55	28.0	79.0		1047.450269264009	0.6057172040018486
79.0	1044.6416219759994	stim	5		299	1.0	0.55	28.0	79.0		1048.0559864680108	4.992029372995603
79.0	1049.633651348995	stim	6		18	1.0	0.55	28.0	79.0		1053.0480158410064	0.3002543809998315
79.0	1049.9339057299949	stim	7		18	1.0	0.55	28.0	79.0		1053.3482702220062	0.3189783720008563
79.0	1050.2528841019957	stim	8		15	1.0	0.55	28.0	79.0		1053.667248594007	0.5881561730057001
79.0	1050.8410402750014	stim	9		34	1.0	0.55	28.0	79.0		1054.2554047670128	0.5914660359994741
79.0	1051.4271750589978	response	9	j		1.0	0.55	28.0	79.0		1054.8415395510092	
79.0	1051.432506311001	choice	9		239					1.0	1054.8468708030123	3.408491750000394
80.0	1054.8409980610013	stim	0		15	1.0	0.55	20.0	40.0		1058.2553625530127	0.2500146409875015
80.0	1055.0910127019888	stim	1		18	1.0	0.55	20.0	40.0		1058.5053771940002	0.2999406510061817
80.0	1055.390953352995	stim	2		18	1.0	0.55	20.0	40.0		1058.8053178450064	0.29988400399452075
80.0	1055.6908373569895	stim	3		30	1.0	0.55	20.0	40.0		1059.1052018490009	0.5021328529983293
80.0	1056.1929702099878	stim	4		29	1.0	0.55	20.0	40.0		1059.6073347019992	0.5820032060000813
80.0	1056.774973415988	stim	5		300	1.0	0.55	20.0	40.0		1060.1893379079993	5.0086423830071
80.0	1061.783615798995	stim	6		18	1.0	0.55	20.0	40.0		1065.1979802910064	0.29992035900068004
80.0	1062.0835361579957	stim	7		18	1.0	0.55	20.0	40.0		1065.497900650007	0.30594347999431193
80.0	1062.38947963799	stim	8		32	1.0	0.55	20.0	40.0		1065.8038441300014	0.5937224060035078
80.0	1062.9832020439935	stim	9		30	1.0	0.55	20.0	40.0		1066.397566536005	0.5069652439997299
80.0	1063.4856796289969	response	9	j		1.0	0.55	20.0	40.0		1066.9000441210082	
80.0	1063.4901672879932	choice	9		240					1.0	1066.9045317800046	3.4936133250012062
81.0	1066.9837806129945	stim	0		2414						1070.3981451050058	40.249127032002434
