trial_nr	onset	event_type	phase	response	nr_frames	prob1	prob2	n1	n2	choice	onset_abs	duration
1.0	0.016521065001143143	stim	0		58						3.4718703239996103	0.9690762829995947
1.0	0.9673908260010649	response	0	j							4.422740084999532	
1.0	0.9855973480007378	stim	0		289						4.440946606999205	5.0038047850030125
1.0	5.98940213300375	stim	0		15	0.55	1.0	33.0	20.0		9.444751392002217	0.24574152899731416
1.0	6.2351436620010645	stim	1		19	0.55	1.0	33.0	20.0		9.690492920999532	0.31616260400187457
1.0	6.551306266002939	stim	2		18	0.55	1.0	33.0	20.0		10.006655525001406	0.30037142599758226
1.0	6.851677692000521	stim	3		28	0.55	1.0	33.0	20.0		10.307026950998988	0.4968451540044043
1.0	7.348522846004926	stim	4		26	0.55	1.0	33.0	20.0		10.803872105003393	0.6028539929975523
1.0	7.951376839002478	stim	5		299	0.55	1.0	33.0	20.0		11.406726098000945	4.983432367000205
1.0	12.934809206002683	stim	6		19	0.55	1.0	33.0	20.0		16.39015846500115	0.31695260299602523
1.0	13.251761808998708	stim	7		17	0.55	1.0	33.0	20.0		16.707111067997175	0.28780340600496856
1.0	13.539565215003677	stim	8		31	0.55	1.0	33.0	20.0		16.994914474002144	0.6023343449996901
1.0	14.141899560003367	stim	9		40	0.55	1.0	33.0	20.0		17.597248819001834	0.6671506579950801
1.0	14.802707202004967	response	9	k		0.55	1.0	33.0	20.0		18.258056461003434	
1.0	14.809050217998447	choice	9		241					2.0	18.264399476996914	3.34216510400438
2.0	18.151215322002827	stim	0		15	0.55	1.0	56.0	28.0		21.606564581001294	0.2506349679970299
2.0	18.401850289999857	stim	1		18	0.55	1.0	56.0	28.0		21.857199548998324	0.2994588220026344
2.0	18.70130911200249	stim	2		18	0.55	1.0	56.0	28.0		22.156658371000958	0.30003451299853623
2.0	19.001343625001027	stim	3		30	0.55	1.0	56.0	28.0		22.456692883999494	0.5171601500042016
2.0	19.51850377500523	stim	4		19	0.55	1.0	56.0	28.0		22.973853034003696	0.599721126993245
2.0	20.118224901998474	stim	5		298	0.55	1.0	56.0	28.0		23.57357416099694	4.9663203490054
2.0	25.084545251003874	stim	6		19	0.55	1.0	56.0	28.0		28.53989451000234	0.31690385399997467
2.0	25.40144910500385	stim	7		18	0.55	1.0	56.0	28.0		28.856798364002316	0.3075625019992003
2.0	25.70901160700305	stim	8		26	0.55	1.0	56.0	28.0		29.164360866001516	0.5760872190003283
2.0	26.285098826003377	stim	9		44	0.55	1.0	56.0	28.0		29.740448085001844	0.741054466998321
2.0	27.021024718000263	response	9	j		0.55	1.0	56.0	28.0		30.47637397699873	
2.0	27.0261532930017	choice	9		240					1.0	30.481502552000165	3.2678839349973714
3.0	30.29403722799907	stim	0		15	0.55	1.0	16.0	14.0		33.74938648699754	0.24942190400179243
3.0	30.543459132000862	stim	1		18	0.55	1.0	16.0	14.0		33.99880839099933	0.30043488099909155
3.0	30.843894012999954	stim	2		18	0.55	1.0	16.0	14.0		34.29924327199842	0.2994328670029063
3.0	31.14332688000286	stim	3		30	0.55	1.0	16.0	14.0		34.59867613900133	0.4998304440014181
3.0	31.643157324004278	stim	4		36	0.55	1.0	16.0	14.0		35.098506583002745	0.6009324389960966
3.0	32.244089763000375	stim	5		300	0.55	1.0	16.0	14.0		35.69943902199884	4.999074307997944
3.0	37.24316407099832	stim	6		18	0.55	1.0	16.0	14.0		40.698513329996786	0.3005989880039124
3.0	37.54376305900223	stim	7		18	0.55	1.0	16.0	14.0		40.9991123180007	0.2993531320025795
3.0	37.84311619100481	stim	8		36	0.55	1.0	16.0	14.0		41.29846545000328	0.600525703994208
3.0	38.44364189499902	stim	9		41	0.55	1.0	16.0	14.0		41.898991153997486	0.6901203779998468
3.0	39.12919269200211	response	9	k		0.55	1.0	16.0	14.0		42.584541951000574	
3.0	39.133762272998865	choice	9		240					2.0	42.58911153199733	3.309642464002536
4.0	42.4434047370014	stim	0		15	0.55	1.0	33.0	28.0		45.89875399599987	0.2499442159969476
4.0	42.69334895299835	stim	1		18	0.55	1.0	33.0	28.0		46.148698211996816	0.3010567470046226
4.0	42.99440570000297	stim	2		18	0.55	1.0	33.0	28.0		46.44975495900144	0.2990049509971868
4.0	43.29341065100016	stim	3		30	0.55	1.0	33.0	28.0		46.748759909998626	0.5024686149990885
4.0	43.79587926599925	stim	4		36	0.55	1.0	33.0	28.0		47.251228524997714	0.5981271980053862
4.0	44.39400646400463	stim	5		300	0.55	1.0	33.0	28.0		47.8493557230031	4.999561502998404
4.0	49.39356796700304	stim	6		18	0.55	1.0	33.0	28.0		52.848917226001504	0.2997450530019705
4.0	49.69331302000501	stim	7		18	0.55	1.0	33.0	28.0		53.148662279003474	0.30044361199543346
4.0	49.99375663200044	stim	8		35	0.55	1.0	33.0	28.0		53.44910589099891	0.5879896990009001
4.0	50.57462796699838	response	8	k		0.55	1.0	33.0	28.0		54.029977225996845	
4.0	50.58174633100134	choice	8		36					2.0	54.03709558999981	0.011712544001056813
4.0	50.5934588750024	stim	9		240	0.55	1.0	33.0	28.0		54.048808134000865	4.000184167998668
5.0	54.593643043001066	stim	0		15	0.55	1.0	8.0	7.0		58.04899230199953	0.24962684100319166
5.0	54.84326988400426	stim	1		18	0.55	1.0	8.0	7.0		58.298619143002725	0.29976239599636756
5.0	55.143032280000625	stim	2		18	0.55	1.0	8.0	7.0		58.59838153899909	0.2998191160004353
5.0	55.44285139600106	stim	3		30	0.55	1.0	8.0	7.0		58.89820065499953	0.500469480000902
5.0	55.94332087600196	stim	4		36	0.55	1.0	8.0	7.0		59.39867013500043	0.6001976850020583
5.0	56.54351856100402	stim	5		300	0.55	1.0	8.0	7.0		59.99886782000249	4.999618914996972
5.0	61.54313747600099	stim	6		18	0.55	1.0	8.0	7.0		64.99848673499946	0.2999493289971724
5.0	61.843086804998165	stim	7		18	0.55	1.0	8.0	7.0		65.29843606399663	0.30009955600689864
5.0	62.143186361005064	stim	8		36	0.55	1.0	8.0	7.0		65.59853562000353	0.5998110229993472
5.0	62.74299738400441	stim	9		55	0.55	1.0	8.0	7.0		66.19834664300288	0.9240422609946108
5.0	63.66251195500081	response	9	k		0.55	1.0	8.0	7.0		67.11786121399928	
5.0	63.66703964499902	choice	9		240					2.0	67.12238890399749	3.076303216002998
6.0	66.74334286100202	stim	0		15	0.55	1.0	66.0	28.0		70.19869212000049	0.24981570299860323
6.0	66.99315856400062	stim	1		18	0.55	1.0	66.0	28.0		70.44850782299909	0.30006811500061303
6.0	67.29322667900124	stim	2		18	0.55	1.0	66.0	28.0		70.7485759379997	0.30010071900323965
6.0	67.59332739800448	stim	3		30	0.55	1.0	66.0	28.0		71.04867665700294	0.51473460199486
6.0	68.10806199999934	stim	4		17	0.55	1.0	66.0	28.0		71.5634112589978	0.5828698430050281
6.0	68.69093184300436	stim	5		301	0.55	1.0	66.0	28.0		72.14628110200283	5.00227739699767
6.0	73.69320924000203	stim	6		18	0.55	1.0	66.0	28.0		77.1485584990005	0.2996342559999903
6.0	73.99284349600202	stim	7		18	0.55	1.0	66.0	28.0		77.44819275500049	0.3001728879971779
6.0	74.2930163839992	stim	8		36	0.55	1.0	66.0	28.0		77.74836564299767	0.600116211004206
6.0	74.89313259500341	stim	9		38	0.55	1.0	66.0	28.0		78.34848185400188	0.6391303039999912
6.0	75.52795716500259	response	9	j		0.55	1.0	66.0	28.0		78.98330642400106	
6.0	75.5322628990034	choice	9		240					1.0	78.98761215800187	3.360717562994978
7.0	78.89298046199838	stim	0		15	0.55	1.0	11.0	7.0		82.34832972099684	0.2497114230063744
7.0	79.14269188500475	stim	1		18	0.55	1.0	11.0	7.0		82.59804114400322	0.30024669299746165
7.0	79.44293857800221	stim	2		18	0.55	1.0	11.0	7.0		82.89828783700068	0.3002710560031119
7.0	79.74320963400532	stim	3		30	0.55	1.0	11.0	7.0		83.19855889300379	0.499862550997932
7.0	80.24307218500326	stim	4		36	0.55	1.0	11.0	7.0		83.69842144400172	0.5997535689966753
7.0	80.84282575399993	stim	5		300	0.55	1.0	11.0	7.0		84.2981750129984	4.999833451998711
7.0	85.84265920599864	stim	6		18	0.55	1.0	11.0	7.0		89.29800846499711	0.3007453880054527
7.0	86.1434045940041	stim	7		18	0.55	1.0	11.0	7.0		89.59875385300256	0.29971666599885793
7.0	86.44312126000295	stim	8		36	0.55	1.0	11.0	7.0		89.89847051900142	0.599658492996241
7.0	87.0427797529992	stim	9		12	0.55	1.0	11.0	7.0		90.49812901199766	0.20715064600517508
7.0	87.24555942499865	response	9	j		0.55	1.0	11.0	7.0		90.70090868399711	
7.0	87.24993039900437	choice	9		240					1.0	90.70527965800284	3.7927413219949813
8.0	91.04267172099935	stim	0		15	0.55	1.0	39.0	28.0		94.49802097999782	0.25071128499985207
8.0	91.2933830059992	stim	1		18	0.55	1.0	39.0	28.0		94.74873226499767	0.2992768240001169
8.0	91.59265982999932	stim	2		18	0.55	1.0	39.0	28.0		95.04800908899779	0.3003064229997108
8.0	91.89296625299903	stim	3		30	0.55	1.0	39.0	28.0		95.3483155119975	0.5048778660056996
8.0	92.39784411900473	stim	4		32	0.55	1.0	39.0	28.0		95.8531933780032	0.594728830998065
8.0	92.9925729500028	stim	5		300	0.55	1.0	39.0	28.0		96.44792220900126	4.999724414999946
8.0	97.99229736500274	stim	6		18	0.55	1.0	39.0	28.0		101.44764662400121	0.3008019150001928
8.0	98.29309928000293	stim	7		18	0.55	1.0	39.0	28.0		101.7484485390014	0.3002265909963171
8.0	98.59332587099925	stim	8		35	0.55	1.0	39.0	28.0		102.04867512999772	0.6039498600002844
8.0	99.19727573099954	stim	9		22	0.55	1.0	39.0	28.0		102.652624989998	0.37463929100340465
8.0	99.567952849	response	9	k		0.55	1.0	39.0	28.0		103.02330210799846	
8.0	99.57191502200294	choice	9		240					2.0	103.02726428100141	3.627970927998831
9.0	103.19988595000177	stim	0		15	0.55	1.0	23.0	7.0		106.65523520900024	0.2500824710004963
9.0	103.44996842100227	stim	1		18	0.55	1.0	23.0	7.0		106.90531768000073	0.2998934509960236
9.0	103.74986187199829	stim	2		18	0.55	1.0	23.0	7.0		107.20521113099676	0.3000779570065788
9.0	104.04993982900487	stim	3		30	0.55	1.0	23.0	7.0		107.50528908800334	0.5049733459964045
9.0	104.55491317500127	stim	4		29	0.55	1.0	23.0	7.0		108.01026243399974	0.5955574899999192
9.0	105.1504706650012	stim	5		300	0.55	1.0	23.0	7.0		108.60581992399966	4.999265728001774
9.0	110.14973639300297	stim	6		17	0.55	1.0	23.0	7.0		113.60508565200143	0.3000457539965282
9.0	110.4497821469995	stim	7		18	0.55	1.0	23.0	7.0		113.90513140599796	0.30034656100178836
9.0	110.75012870800128	stim	8		36	0.55	1.0	23.0	7.0		114.20547796699975	0.5998704119992908
9.0	111.34999912000058	stim	9		5	0.55	1.0	23.0	7.0		114.80534837899904	0.09162577099777991
9.0	111.43653383300261	response	9	j		0.55	1.0	23.0	7.0		114.89188309200108	
9.0	111.44162489099836	choice	9		240					1.0	114.89697414999682	3.9010341610046453
10.0	115.342659052003	stim	0		15	0.55	1.0	33.0	14.0		118.79800831100147	0.24950127500051167
10.0	115.59216032700351	stim	1		18	0.55	1.0	33.0	14.0		119.04750958600198	0.2999546229984844
10.0	115.892114950002	stim	2		18	0.55	1.0	33.0	14.0		119.34746420900046	0.30009025600156747
10.0	116.19220520600356	stim	3		30	0.55	1.0	33.0	14.0		119.64755446500203	0.5005151039949851
10.0	116.69272030999855	stim	4		36	0.55	1.0	33.0	14.0		120.14806956899702	0.5993918380045216
10.0	117.29211214800307	stim	5		300	0.55	1.0	33.0	14.0		120.74746140700154	4.99997261200042
10.0	122.29208476000349	stim	6		18	0.55	1.0	33.0	14.0		125.74743401900196	0.2999922669987427
10.0	122.59207702700223	stim	7		18	0.55	1.0	33.0	14.0		126.0474262860007	0.2999356340005761
10.0	122.89201266100281	stim	8		36	0.55	1.0	33.0	14.0		126.34736192000128	0.5998609599992051
10.0	123.49187362100201	stim	9		21	0.55	1.0	33.0	14.0		126.94722288000048	0.35486181199667044
10.0	123.82853454600263	response	9	j		0.55	1.0	33.0	14.0		127.2838838050011	
10.0	123.84673543299868	choice	9		240					1.0	127.30208469199715	3.6461393070057966
1.0	127.49287474000448	stim	0		300						130.94822399900295	4.999272175999067
11.0	132.49214691600355	stim	0		15	1.0	0.55	20.0	56.0		135.94749617500202	0.2500536799998372
11.0	132.74220059600339	stim	1		18	1.0	0.55	20.0	56.0		136.19754985500185	0.29979730999912135
11.0	133.0419979060025	stim	2		18	1.0	0.55	20.0	56.0		136.49734716500097	0.30051977800030727
11.0	133.34251768400281	stim	3		30	1.0	0.55	20.0	56.0		136.79786694300128	0.4991349479969358
11.0	133.84165263199975	stim	4		33	1.0	0.55	20.0	56.0		137.29700189099822	0.5913908790025744
11.0	134.43304351100232	stim	5		301	1.0	0.55	20.0	56.0		137.8883927700008	5.008900911001547
11.0	139.44194442200387	stim	6		18	1.0	0.55	20.0	56.0		142.89729368100234	0.30015885299508227
11.0	139.74210327499895	stim	7		18	1.0	0.55	20.0	56.0		143.19745253399742	0.3129223819996696
11.0	140.05502565699862	stim	8		25	1.0	0.55	20.0	56.0		143.5103749159971	0.6034617500044988
11.0	140.65848740700312	stim	9		4	1.0	0.55	20.0	56.0		144.1138366660016	0.07212219599750824
11.0	140.72691364800266	response	9	k		1.0	0.55	20.0	56.0		144.18226290700113	
11.0	140.73060960300063	choice	9		239					2.0	144.1859588619991	3.9116034129983746
12.0	144.642213015999	stim	0		15	1.0	0.55	14.0	28.0		148.09756227499747	0.2497337700042408
12.0	144.89194678600325	stim	1		18	1.0	0.55	14.0	28.0		148.3472960450017	0.3000847910006996
12.0	145.19203157700395	stim	2		18	1.0	0.55	14.0	28.0		148.6473808360024	0.2995067160009057
12.0	145.49153829300485	stim	3		30	1.0	0.55	14.0	28.0		148.94688755200332	0.49990408899611793
12.0	145.99144238200097	stim	4		36	1.0	0.55	14.0	28.0		149.44679164099944	0.6001956890031579
12.0	146.59163807100413	stim	5		300	1.0	0.55	14.0	28.0		150.0469873300026	4.999917517998256
12.0	151.59155558900238	stim	6		18	1.0	0.55	14.0	28.0		155.04690484800085	0.3000138639981742
12.0	151.89156945300056	stim	7		18	1.0	0.55	14.0	28.0		155.34691871199902	0.30010211400076514
12.0	152.19167156700132	stim	8		31	1.0	0.55	14.0	28.0		155.6470208259998	0.6077147090036306
12.0	152.79938627600495	stim	9		34	1.0	0.55	14.0	28.0		156.25473553500342	0.589462576994265
12.0	153.38429200700193	response	9	k		1.0	0.55	14.0	28.0		156.8396412660004	
12.0	153.38884885299922	choice	9		239					2.0	156.84419811199768	3.4030687710037455
13.0	156.79191762400296	stim	0		15	1.0	0.55	20.0	47.0		160.24726688300143	0.24939251099567628
13.0	157.04131013499864	stim	1		18	1.0	0.55	20.0	47.0		160.4966593939971	0.3002517240020097
13.0	157.34156185900065	stim	2		18	1.0	0.55	20.0	47.0		160.79691111799912	0.300214914001117
13.0	157.64177677300177	stim	3		30	1.0	0.55	20.0	47.0		161.09712603200023	0.49966159400355536
13.0	158.14143836700532	stim	4		36	1.0	0.55	20.0	47.0		161.5967876260038	0.6000244479946559
13.0	158.74146281499998	stim	5		300	1.0	0.55	20.0	47.0		162.19681207399844	4.999961795998388
13.0	163.74142461099837	stim	6		18	1.0	0.55	20.0	47.0		167.19677386999683	0.2998401430013473
13.0	164.0412647539997	stim	7		18	1.0	0.55	20.0	47.0		167.49661401299818	0.3073952190025011
13.0	164.3486599730022	stim	8		28	1.0	0.55	20.0	47.0		167.80400923200068	0.5934198780014412
13.0	164.94207985100365	stim	9		10	1.0	0.55	20.0	47.0		168.39742911000212	0.17213895299937576
13.0	165.11006842200004	response	9	k		1.0	0.55	20.0	47.0		168.5654176809985	
13.0	165.11421880400303	choice	9		240					2.0	168.5695680630015	3.827746269002091
14.0	168.94196507300512	stim	0		15	1.0	0.55	10.0	28.0		172.3973143320036	0.24987666699598776
14.0	169.1918417400011	stim	1		18	1.0	0.55	10.0	28.0		172.64719099899958	0.2999651010031812
14.0	169.4918068410043	stim	2		18	1.0	0.55	10.0	28.0		172.94715610000276	0.2997478159959428
14.0	169.79155465700023	stim	3		30	1.0	0.55	10.0	28.0		173.2469039159987	0.5000294280034723
14.0	170.2915840850037	stim	4		36	1.0	0.55	10.0	28.0		173.74693334400217	0.6003144099959172
14.0	170.89189849499962	stim	5		300	1.0	0.55	10.0	28.0		174.3472477539981	4.999478502999409
14.0	175.89137699799903	stim	6		18	1.0	0.55	10.0	28.0		179.3467262569975	0.30023841600632295
14.0	176.19161541400535	stim	7		18	1.0	0.55	10.0	28.0		179.64696467300382	0.3007682079987717
14.0	176.49238362200413	stim	8		28	1.0	0.55	10.0	28.0		179.9477328810026	0.6093335849946016
14.0	177.10171720699873	stim	9		4	1.0	0.55	10.0	28.0		180.5570664659972	0.06850384100107476
14.0	177.16545114000473	response	9	k		1.0	0.55	10.0	28.0		180.6208003990032	
14.0	177.1702210479998	choice	9		239					2.0	180.62557030699827	3.928826191004191
15.0	181.099047239004	stim	0		15	1.0	0.55	28.0	56.0		184.55439649800246	0.24995005699747708
15.0	181.34899729600147	stim	1		18	1.0	0.55	28.0	56.0		184.80434655499994	0.29968560399720445
15.0	181.64868289999868	stim	2		18	1.0	0.55	28.0	56.0		185.10403215899714	0.3002287730050739
15.0	181.94891167300375	stim	3		30	1.0	0.55	28.0	56.0		185.40426093200222	0.5085614509953302
15.0	182.45747312399908	stim	4		26	1.0	0.55	28.0	56.0		185.91282238299755	0.5947174270040705
15.0	183.05219055100315	stim	5		300	1.0	0.55	28.0	56.0		186.50753981000162	4.996319616999244
15.0	188.0485101680024	stim	6		18	1.0	0.55	28.0	56.0		191.50385942700086	0.29272707799827913
15.0	188.34123724600067	stim	7		18	1.0	0.55	28.0	56.0		191.79658650499914	0.30913355800294084
15.0	188.65037080400361	stim	8		24	1.0	0.55	28.0	56.0		192.10572006300208	0.6073748979979428
15.0	189.25774570200156	stim	9		20	1.0	0.55	28.0	56.0		192.71309496100002	0.3408995080026216
15.0	189.5933536800003	response	9	k		1.0	0.55	28.0	56.0		193.04870293899876	
15.0	189.59864521000418	choice	9		239					2.0	193.05399446900265	3.6424696690010023
16.0	193.24111487900518	stim	0		15	1.0	0.55	7.0	14.0		196.69646413800365	0.25000626999826636
16.0	193.49112114900345	stim	1		18	1.0	0.55	7.0	14.0		196.94647040800191	0.30000478199508507
16.0	193.79112593099853	stim	2		18	1.0	0.55	7.0	14.0		197.246475189997	0.30042005300492747
16.0	194.09154598400346	stim	3		30	1.0	0.55	7.0	14.0		197.54689524300193	0.4991639520012541
16.0	194.5907099360047	stim	4		36	1.0	0.55	7.0	14.0		198.04605919500318	0.6003459019993898
16.0	195.1910558380041	stim	5		300	1.0	0.55	7.0	14.0		198.64640509700257	5.0001813220005715
16.0	200.19123716000468	stim	6		18	1.0	0.55	7.0	14.0		203.64658641900314	0.3001113680002163
16.0	200.4913485280049	stim	7		18	1.0	0.55	7.0	14.0		203.94669778700336	0.29958980399533175
16.0	200.79093833200022	stim	8		36	1.0	0.55	7.0	14.0		204.2462875909987	0.600454555999022
16.0	201.39139288799925	stim	9		100	1.0	0.55	7.0	14.0		204.8467421469977	1.6776913720023003
16.0	203.06295993299864	response	9	k		1.0	0.55	7.0	14.0		206.5183091919971	
16.0	203.06908426000155	choice	9		240					2.0	206.524433519	2.3217918680020375
17.0	205.39087612800358	stim	0		15	1.0	0.55	20.0	80.0		208.84622538700205	0.2498785899952054
17.0	205.6407547179988	stim	1		18	1.0	0.55	20.0	80.0		209.09610397699726	0.300264107005205
17.0	205.941018825004	stim	2		18	1.0	0.55	20.0	80.0		209.39636808400246	0.2998480690002907
17.0	206.24086689400428	stim	3		30	1.0	0.55	20.0	80.0		209.69621615300275	0.49975534699478885
17.0	206.74062224099907	stim	4		35	1.0	0.55	20.0	80.0		210.19597149999754	0.6002896770005464
17.0	207.34091191799962	stim	5		300	1.0	0.55	20.0	80.0		210.7962611769981	5.000175034001586
17.0	212.3410869520012	stim	6		18	1.0	0.55	20.0	80.0		215.79643621099967	0.29986230799840996
17.0	212.64094925999962	stim	7		18	1.0	0.55	20.0	80.0		216.09629851899808	0.3182840310037136
17.0	212.95923329100333	stim	8		15	1.0	0.55	20.0	80.0		216.4145825500018	0.5890723779957625
17.0	213.5483056689991	stim	9		3	1.0	0.55	20.0	80.0		217.00365492799756	0.05766817200492369
17.0	213.60092921899923	response	9	k		1.0	0.55	20.0	80.0		217.0562784779977	
17.0	213.60597384100402	choice	9		240					2.0	217.06132310000248	3.935143470996991
18.0	217.541117312001	stim	0		15	1.0	0.55	10.0	33.0		220.99646657099947	0.2494932699992205
18.0	217.79061058200023	stim	1		18	1.0	0.55	10.0	33.0		221.2459598409987	0.30005322500073817
18.0	218.09066380700096	stim	2		18	1.0	0.55	10.0	33.0		221.54601306599943	0.2999099099979503
18.0	218.39057371699892	stim	3		30	1.0	0.55	10.0	33.0		221.84592297599738	0.5000500170062878
18.0	218.8906237340052	stim	4		36	1.0	0.55	10.0	33.0		222.34597299300367	0.5995612799961236
18.0	219.49018501400133	stim	5		300	1.0	0.55	10.0	33.0		222.9455342729998	5.00026401100331
18.0	224.49044902500464	stim	6		18	1.0	0.55	10.0	33.0		227.9457982840031	0.2999268299972755
18.0	224.7903758550019	stim	7		18	1.0	0.55	10.0	33.0		228.24572511400038	0.30207781700300984
18.0	225.09245367200492	stim	8		36	1.0	0.55	10.0	33.0		228.5478029310034	0.597976271994412
18.0	225.69042994399933	stim	9		26	1.0	0.55	10.0	33.0		229.1457792029978	0.439866560001974
18.0	226.12599235800008	response	9	k		1.0	0.55	10.0	33.0		229.58134161699854	
18.0	226.1302965040013	choice	9		240					2.0	229.58564576299977	3.560428573000536
19.0	229.69072507700184	stim	0		15	1.0	0.55	28.0	33.0		233.1460743360003	0.2500195570028154
19.0	229.94074463400466	stim	1		18	1.0	0.55	28.0	33.0		233.39609389300313	0.3000928209949052
19.0	230.24083745499956	stim	2		18	1.0	0.55	28.0	33.0		233.69618671399803	0.2996199830013211
19.0	230.54045743800089	stim	3		30	1.0	0.55	28.0	33.0		233.99580669699935	0.5019472330022836
19.0	231.04240467100317	stim	4		36	1.0	0.55	28.0	33.0		234.49775393000164	0.5979815390019212
19.0	231.6403862100051	stim	5		300	1.0	0.55	28.0	33.0		235.09573546900356	5.000371860995074
19.0	231.82676060700032	response	5	j		1.0	0.55	28.0	33.0		235.2821098659988	
19.0	236.64075807100016	stim	6		18	1.0	0.55	28.0	33.0		240.09610732999863	0.2997652000049129
19.0	236.94052327100508	stim	7		18	1.0	0.55	28.0	33.0		240.39587253000354	0.30449031599709997
19.0	237.24501358700218	stim	8		32	1.0	0.55	28.0	33.0		240.70036284600064	0.5960459209964029
19.0	237.84105950799858	stim	9		7	1.0	0.55	28.0	33.0		241.29640876699705	0.12382615400565555
19.0	237.95961087500473	response	9	k		1.0	0.55	28.0	33.0		241.4149601340032	
19.0	237.96488566200424	choice	9		240					2.0	241.4202349210027	3.875485409000248
20.0	241.84037107100448	stim	0		15	1.0	0.55	14.0	19.0		245.29572033000295	0.24997481599712046
20.0	242.0903458870016	stim	1		18	1.0	0.55	14.0	19.0		245.54569514600007	0.299795336999523
20.0	242.39014122400113	stim	2		18	1.0	0.55	14.0	19.0		245.8454904829996	0.30037461000029
20.0	242.69051583400142	stim	3		30	1.0	0.55	14.0	19.0		246.14586509299988	0.4995014300002367
20.0	243.19001726400165	stim	4		36	1.0	0.55	14.0	19.0		246.64536652300012	0.600275912998768
20.0	243.79029317700042	stim	5		300	1.0	0.55	14.0	19.0		247.2456424359989	4.999762409999676
20.0	248.7900555870001	stim	6		18	1.0	0.55	14.0	19.0		252.24540484599856	0.3001191990042571
20.0	249.09017478600435	stim	7		18	1.0	0.55	14.0	19.0		252.54552404500282	0.2996967669969308
20.0	249.38987155300129	stim	8		36	1.0	0.55	14.0	19.0		252.84522081199975	0.6000923329993384
20.0	249.98996388600062	stim	9		23	1.0	0.55	14.0	19.0		253.4453131449991	0.39103225400322117
20.0	250.3762825770027	response	9	k		1.0	0.55	14.0	19.0		253.83163183600118	
20.0	250.38099614000384	choice	9		240					2.0	253.8363453990023	3.6094897520015365
2.0	253.99048589200538	stim	0		294						257.44583515100385	4.905105867997918
2.0	258.8759741340036	response	0	j							262.3313233930021	
2.0	258.8955917600033	stim	0		301						262.35094101900177	5.0108932579969405
21.0	263.90648501800024	stim	0		15	1.0	0.55	14.0	16.0		267.3618342769987	0.2500205160031328
21.0	264.1565055340034	stim	1		18	1.0	0.55	14.0	16.0		267.61185479300184	0.2999694719983381
21.0	264.4564750060017	stim	2		18	1.0	0.55	14.0	16.0		267.9118242650002	0.30004613399796654
21.0	264.7565211399997	stim	3		30	1.0	0.55	14.0	16.0		268.21187039899814	0.49983676800184185
21.0	265.2563579080015	stim	4		36	1.0	0.55	14.0	16.0		268.711707167	0.5999914190033451
21.0	265.85634932700486	stim	5		300	1.0	0.55	14.0	16.0		269.31169858600333	5.000287165996269
21.0	270.85663649300113	stim	6		18	1.0	0.55	14.0	16.0		274.3119857519996	0.29998359300225275
21.0	271.1566200860034	stim	7		18	1.0	0.55	14.0	16.0		274.61196934500185	0.29963318199588684
21.0	271.4562532679993	stim	8		36	1.0	0.55	14.0	16.0		274.91160252699774	0.6000495730040711
21.0	272.05630284100334	stim	9		17	1.0	0.55	14.0	16.0		275.5116521000018	0.2915615629972308
21.0	272.3422563569984	response	9	k		1.0	0.55	14.0	16.0		275.7976056159969	
21.0	272.3478644040006	choice	9		240					2.0	275.80321366299904	3.7084950740027125
22.0	276.0563594780033	stim	0		15	1.0	0.55	10.0	40.0		279.51170873700175	0.24987185600184603
22.0	276.30623133400513	stim	1		18	1.0	0.55	10.0	40.0		279.7615805930036	0.3002856419989257
22.0	276.60651697600406	stim	2		18	1.0	0.55	10.0	40.0		280.0618662350025	0.2998829790012678
22.0	276.9063999550053	stim	3		30	1.0	0.55	10.0	40.0		280.3617492140038	0.49979661399993347
22.0	277.40619656900526	stim	4		36	1.0	0.55	10.0	40.0		280.8615458280037	0.6005445139962831
22.0	278.00674108300154	stim	5		300	1.0	0.55	10.0	40.0		281.462090342	4.999344415999076
22.0	283.0060854990006	stim	6		18	1.0	0.55	10.0	40.0		286.4614347579991	0.3000587819988141
22.0	283.30614428099943	stim	7		18	1.0	0.55	10.0	40.0		286.7614935399979	0.3032390100051998
22.0	283.60938329100463	stim	8		21	1.0	0.55	10.0	40.0		287.0647325500031	0.4035025489938562
22.0	284.00560114999826	response	8	k		1.0	0.55	10.0	40.0		287.4609504089967	
22.0	284.0128858399985	choice	8		31					2.0	287.46823509899696	0.17607005900208605
22.0	284.1889558990006	stim	9		241	1.0	0.55	10.0	40.0		287.64430515799904	4.017034162003256
23.0	288.20599006100383	stim	0		15	1.0	0.55	10.0	14.0		291.6613393200023	0.25011341399658704
23.0	288.4561034750004	stim	1		18	1.0	0.55	10.0	14.0		291.9114527339989	0.3006798019996495
23.0	288.75678327700007	stim	2		18	1.0	0.55	10.0	14.0		292.21213253599853	0.2992088009996223
23.0	289.0559920779997	stim	3		30	1.0	0.55	10.0	14.0		292.51134133699816	0.5003810260022874
23.0	289.556373104002	stim	4		36	1.0	0.55	10.0	14.0		293.01172236300044	0.5996205010014819
23.0	290.15599360500346	stim	5		300	1.0	0.55	10.0	14.0		293.6113428640019	5.000259200001892
23.0	295.15625280500535	stim	6		18	1.0	0.55	10.0	14.0		298.6116020640038	0.29974072499317117
23.0	295.4559935299985	stim	7		18	1.0	0.55	10.0	14.0		298.911342788997	0.2997393000041484
23.0	295.75573283000267	stim	8		36	1.0	0.55	10.0	14.0		299.21108208900114	0.6002846299961675
23.0	296.35601745999884	stim	9		42	1.0	0.55	10.0	14.0		299.8113667189973	0.7057196580062737
23.0	297.0575474040015	response	9	k		1.0	0.55	10.0	14.0		300.512896663	
23.0	297.0617371180051	choice	9		240					2.0	300.5170863770036	3.294059097999707
24.0	300.3557962160048	stim	0		15	1.0	0.55	14.0	47.0		303.8111454750033	0.2504252039943822
24.0	300.6062214199992	stim	1		18	1.0	0.55	14.0	47.0		304.06157067899767	0.29965030799939996
24.0	300.9058717279986	stim	2		18	1.0	0.55	14.0	47.0		304.36122098699707	0.29990910200285725
24.0	301.20578083000146	stim	3		30	1.0	0.55	14.0	47.0		304.6611300889999	0.500264774003881
24.0	301.70604560400534	stim	4		36	1.0	0.55	14.0	47.0		305.1613948630038	0.5999254409980495
24.0	302.3059710450034	stim	5		300	1.0	0.55	14.0	47.0		305.76132030400186	5.000344114996551
24.0	307.30631515999994	stim	6		18	1.0	0.55	14.0	47.0		310.7616644189984	0.2994787700008601
24.0	307.6057939300008	stim	7		18	1.0	0.55	14.0	47.0		311.06114318899927	0.30836955300037516
24.0	307.9141634830012	stim	8		27	1.0	0.55	14.0	47.0		311.36951274199964	0.5747510689980118
24.0	308.4889145519992	stim	9		2	1.0	0.55	14.0	47.0		311.94426381099765	0.043167381001694594
24.0	308.5276291699993	response	9	k		1.0	0.55	14.0	47.0		311.98297842899774	
24.0	308.5320819330009	choice	9		241					2.0	311.98743119199935	3.973538003003341
25.0	312.5056199360042	stim	0		15	1.0	0.55	7.0	19.0		315.9609691950027	0.2500642279992462
25.0	312.75568416400347	stim	1		18	1.0	0.55	7.0	19.0		316.21103342300194	0.30063590799545636
25.0	313.0563200719989	stim	2		18	1.0	0.55	7.0	19.0		316.5116693309974	0.30348554700321984
25.0	313.35980561900215	stim	3		30	1.0	0.55	7.0	19.0		316.8151548780006	0.4956613260001177
25.0	313.85546694500226	stim	4		36	1.0	0.55	7.0	19.0		317.31081620400073	0.6001748720009346
25.0	314.4556418170032	stim	5		300	1.0	0.55	7.0	19.0		317.91099107600166	5.000623325999186
25.0	319.4562651430024	stim	6		18	1.0	0.55	7.0	19.0		322.91161440200085	0.29946759100130294
25.0	319.7557327340037	stim	7		18	1.0	0.55	7.0	19.0		323.21108199300215	0.3008059939966188
25.0	320.0565387280003	stim	8		36	1.0	0.55	7.0	19.0		323.5118879869988	0.5994478010034072
25.0	320.6559865290037	stim	9		48	1.0	0.55	7.0	19.0		324.1113357880022	0.8063921749999281
25.0	321.4579340420023	response	9	k		1.0	0.55	7.0	19.0		324.9132833010008	
25.0	321.46237870400364	choice	9		240					2.0	324.9177279630021	3.1934417969969218
26.0	324.65582050100056	stim	0		15	1.0	0.55	20.0	23.0		328.11116975999903	0.2500789719997556
26.0	324.9058994730003	stim	1		18	1.0	0.55	20.0	23.0		328.3612487319988	0.2997120840009302
26.0	325.20561155700125	stim	2		18	1.0	0.55	20.0	23.0		328.6609608159997	0.29992087600112427
26.0	325.5055324330024	stim	3		30	1.0	0.55	20.0	23.0		328.96088169200084	0.49982423199980985
26.0	326.0053566650022	stim	4		36	1.0	0.55	20.0	23.0		329.46070592400065	0.5996892650000518
26.0	326.60504593000223	stim	5		300	1.0	0.55	20.0	23.0		330.0603951890007	5.000641913000436
26.0	331.60568784300267	stim	6		18	1.0	0.55	20.0	23.0		335.06103710200114	0.2998883499967633
26.0	331.90557619299943	stim	7		18	1.0	0.55	20.0	23.0		335.3609254519979	0.29985278499952983
26.0	332.20542897799896	stim	8		36	1.0	0.55	20.0	23.0		335.66077823699743	0.6005403790040873
26.0	332.80596935700305	stim	9		17	1.0	0.55	20.0	23.0		336.2613186160015	0.2896285030001309
26.0	333.0909052740026	response	9	j		1.0	0.55	20.0	23.0		336.54625453300105	
26.0	333.0955978600032	choice	9		240					1.0	336.55094711900165	3.709576121000282
27.0	336.80517398100346	stim	0		15	1.0	0.55	7.0	16.0		340.26052324000193	0.2501505830005044
27.0	337.05532456400397	stim	1		18	1.0	0.55	7.0	16.0		340.51067382300243	0.30018257099436596
27.0	337.35550713499833	stim	2		18	1.0	0.55	7.0	16.0		340.8108563939968	0.299906597007066
27.0	337.6554137320054	stim	3		30	1.0	0.55	7.0	16.0		341.11076299100387	0.5001859909971245
27.0	338.1555997230025	stim	4		36	1.0	0.55	7.0	16.0		341.610948982001	0.6003167340022628
27.0	338.7559164570048	stim	5		300	1.0	0.55	7.0	16.0		342.21126571600325	4.999110147000465
27.0	343.75502660400525	stim	6		18	1.0	0.55	7.0	16.0		347.2103758630037	0.30055475399421994
27.0	344.0555813579995	stim	7		18	1.0	0.55	7.0	16.0		347.51093061699794	0.2996940290031489
27.0	344.3552753870026	stim	8		36	1.0	0.55	7.0	16.0		347.8106246460011	0.5997111710021272
27.0	344.95498655800475	stim	9		15	1.0	0.55	7.0	16.0		348.4103358170032	0.25631071899988456
27.0	345.20705563400406	response	9	k		1.0	0.55	7.0	16.0		348.66240489300253	
27.0	345.21129727700463	choice	9		240					2.0	348.6666465360031	3.744180072993913
28.0	348.95547734999855	stim	0		15	1.0	0.55	20.0	28.0		352.410826608997	0.2502401500023552
28.0	349.2057175000009	stim	1		18	1.0	0.55	20.0	28.0		352.66106675899937	0.299712357998942
28.0	349.50542985799984	stim	2		18	1.0	0.55	20.0	28.0		352.9607791169983	0.29982635600026697
28.0	349.8052562140001	stim	3		30	1.0	0.55	20.0	28.0		353.2606054729986	0.4996132550004404
28.0	350.30486946900055	stim	4		30	1.0	0.55	20.0	28.0		353.760218727999	0.5910936900036177
28.0	350.89596315900417	stim	5		300	1.0	0.55	20.0	28.0		354.35131241800264	4.999771620998217
28.0	355.8957347800024	stim	6		18	1.0	0.55	20.0	28.0		359.35108403900085	0.2999875199966482
28.0	356.19572229999903	stim	7		18	1.0	0.55	20.0	28.0		359.6510715589975	0.3075200200037216
28.0	356.50324232000276	stim	8		27	1.0	0.55	20.0	28.0		359.9585915790012	0.609252263995586
28.0	357.11249458399834	stim	9		29	1.0	0.55	20.0	28.0		360.5678438429968	0.4905892090027919
28.0	357.59838718300307	response	9	j		1.0	0.55	20.0	28.0		361.05373644200154	
28.0	357.60308379300113	choice	9		240					1.0	361.0584330519996	3.5017558190011187
29.0	361.10483961200225	stim	0		15	1.0	0.55	28.0	94.0		364.5601888710007	0.25027832899650093
29.0	361.35511794099875	stim	1		18	1.0	0.55	28.0	94.0		364.8104671999972	0.30043292100162944
29.0	361.6555508620004	stim	2		18	1.0	0.55	28.0	94.0		365.11090012099885	0.2999412810022477
29.0	361.95549214300263	stim	3		30	1.0	0.55	28.0	94.0		365.4108414020011	0.5003724790003616
29.0	362.455864622003	stim	4		29	1.0	0.55	28.0	94.0		365.91121388100146	0.5971187289978843
29.0	363.0529833510009	stim	5		300	1.0	0.55	28.0	94.0		366.50833260999934	4.99271280800167
29.0	368.04569615900255	stim	6		18	1.0	0.55	28.0	94.0		371.501045418001	0.2998018159996718
29.0	368.3454979750022	stim	7		18	1.0	0.55	28.0	94.0		371.8008472340007	0.3309760889969766
29.0	368.6764740639992	stim	8		13	1.0	0.55	28.0	94.0		372.13182332299766	0.5722038950043498
29.0	369.24867795900354	stim	9		19	1.0	0.55	28.0	94.0		372.704027218002	0.32057829899713397
29.0	369.5643071010054	response	9	k		1.0	0.55	28.0	94.0		373.01965636000386	
29.0	369.5692562580007	choice	9		241					2.0	373.02460551699915	3.6860491260013077
30.0	373.255305384002	stim	0		15	1.0	0.55	28.0	47.0		376.71065464300045	0.24977369300177088
30.0	373.50507907700376	stim	1		18	1.0	0.55	28.0	47.0		376.9604283360022	0.2995607619959628
30.0	373.8046398389997	stim	2		18	1.0	0.55	28.0	47.0		377.2599890979982	0.3002473880042089
30.0	374.1048872270039	stim	3		30	1.0	0.55	28.0	47.0		377.5602364860024	0.4999285929952748
30.0	374.6048158199992	stim	4		28	1.0	0.55	28.0	47.0		378.06016507899767	0.591326592999394
30.0	375.1961424129986	stim	5		300	1.0	0.55	28.0	47.0		378.65149167199706	4.999035211003502
30.0	380.1951776240021	stim	6		18	1.0	0.55	28.0	47.0		383.65052688300057	0.30021912200027145
30.0	380.49539674600237	stim	7		19	1.0	0.55	28.0	47.0		383.95074600500084	0.3163977049989626
30.0	380.81179445100133	stim	8		28	1.0	0.55	28.0	47.0		384.2671437099998	0.5932635459976154
30.0	381.40505799699895	stim	9		73	1.0	0.55	28.0	47.0		384.8604072559974	1.222855136002181
30.0	382.623458013004	response	9	k		1.0	0.55	28.0	47.0		386.07880727200245	
30.0	382.62791313300113	choice	9		240					2.0	386.0832623919996	2.7761390220039175
2.0	385.40405215500505	stim	0		300						388.8594014140035	5.000388267995731
31.0	390.4044404230008	stim	0		14	0.55	1.0	16.0	10.0		393.85978968199925	0.23332524500438012
31.0	390.63776566800516	stim	1		19	0.55	1.0	16.0	10.0		394.0931149270036	0.31679143099609064
31.0	390.95455709900125	stim	2		18	0.55	1.0	16.0	10.0		394.4099063579997	0.30026846100372495
31.0	391.254825560005	stim	3		30	0.55	1.0	16.0	10.0		394.71017481900344	0.4993934129961417
31.0	391.7542189730011	stim	4		36	0.55	1.0	16.0	10.0		395.2095682319996	0.6005901879980229
31.0	392.35480916099914	stim	5		300	0.55	1.0	16.0	10.0		395.8101584199976	5.000135642003443
31.0	397.3549448030026	stim	6		18	0.55	1.0	16.0	10.0		400.81029406200105	0.29972895499668084
31.0	397.65467375799926	stim	7		18	0.55	1.0	16.0	10.0		401.11002301699773	0.2999939470028039
31.0	397.95466770500207	stim	8		36	0.55	1.0	16.0	10.0		401.41001696400053	0.5999394539976493
31.0	398.5546071589997	stim	9		68	0.55	1.0	16.0	10.0		402.0099564179982	1.1385772909998195
31.0	399.6891658480017	response	9	k		0.55	1.0	16.0	10.0		403.1445151070002	
31.0	399.69318444999953	choice	9		240					2.0	403.148533708998	2.8612001389992656
32.0	402.5543845889988	stim	0		15	0.55	1.0	23.0	10.0		406.00973384799727	0.24957656000333373
32.0	402.80396114900213	stim	1		18	0.55	1.0	23.0	10.0		406.2593104080006	0.2999790719986777
32.0	403.1039402210008	stim	2		18	0.55	1.0	23.0	10.0		406.5592894799993	0.30083860600279877
32.0	403.4047788270036	stim	3		30	0.55	1.0	23.0	10.0		406.8601280860021	0.5006431759975385
32.0	403.90542200300115	stim	4		36	0.55	1.0	23.0	10.0		407.3607712619996	0.5984759700004361
32.0	404.5038979730016	stim	5		300	0.55	1.0	23.0	10.0		407.95924723200005	5.000348806002876
32.0	409.50424677900446	stim	6		18	0.55	1.0	23.0	10.0		412.9595960380029	0.3000979919961537
32.0	409.8043447710006	stim	7		18	0.55	1.0	23.0	10.0		413.2596940299991	0.2997477210010402
32.0	410.10409249200166	stim	8		36	0.55	1.0	23.0	10.0		413.5594417510001	0.6001650079997489
32.0	410.7042575000014	stim	9		72	0.55	1.0	23.0	10.0		414.15960675899987	1.2065469399967697
32.0	411.90625258000364	response	9	j		0.55	1.0	23.0	10.0		415.3616018390021	
32.0	411.9108044399982	choice	9		240					1.0	415.36615369899664	2.793649003004248
33.0	414.7044534430024	stim	0		15	0.55	1.0	47.0	28.0		418.1598027020009	0.24967889999970794
33.0	414.95413234300213	stim	1		18	0.55	1.0	47.0	28.0		418.4094816020006	0.300144654000178
33.0	415.2542769970023	stim	2		18	0.55	1.0	47.0	28.0		418.7096262560008	0.29969767399597913
33.0	415.5539746709983	stim	3		30	0.55	1.0	47.0	28.0		419.00932392999675	0.5081795180012705
33.0	416.06215418899956	stim	4		28	0.55	1.0	47.0	28.0		419.517503447998	0.5918553350056754
33.0	416.65400952400523	stim	5		300	0.55	1.0	47.0	28.0		420.1093587830037	5.000602033993346
33.0	421.6546115579986	stim	6		18	0.55	1.0	47.0	28.0		425.10996081699705	0.29984901700663613
33.0	421.9544605750052	stim	7		18	0.55	1.0	47.0	28.0		425.4098098340037	0.30109748099494027
33.0	422.25555805600015	stim	8		29	0.55	1.0	47.0	28.0		425.7109073149986	0.5927831220033113
33.0	422.84834117800347	stim	9		34	0.55	1.0	47.0	28.0		426.30369043700193	0.5704910009953892
33.0	423.4135896700027	response	9	k		0.55	1.0	47.0	28.0		426.86893892900116	
33.0	423.41883217899885	choice	9		240					2.0	426.8741814379973	3.425757759003318
34.0	426.8445899380022	stim	0		15	0.55	1.0	11.0	10.0		430.29993919700064	0.250220788999286
34.0	427.09481072700146	stim	1		18	0.55	1.0	11.0	10.0		430.5501599859999	0.2998233260004781
34.0	427.39463405300194	stim	2		18	0.55	1.0	11.0	10.0		430.8499833120004	0.2998968350002542
34.0	427.6945308880022	stim	3		30	0.55	1.0	11.0	10.0		431.14988014700066	0.49989840499620186
34.0	428.1944292929984	stim	4		36	0.55	1.0	11.0	10.0		431.64977855199686	0.6004503710064455
34.0	428.79487966400484	stim	5		300	0.55	1.0	11.0	10.0		432.2502289230033	5.008801326999674
34.0	433.8036809910045	stim	6		18	0.55	1.0	11.0	10.0		437.259030250003	0.2999850769992918
34.0	434.1036660680038	stim	7		18	0.55	1.0	11.0	10.0		437.55901532700227	0.3003845959974569
34.0	434.40405066400126	stim	8		36	0.55	1.0	11.0	10.0		437.8593999229997	0.6000775420034188
34.0	435.0041282060047	stim	9		36	0.55	1.0	11.0	10.0		438.45947746500315	0.6067692659999011
34.0	435.606439838004	response	9	k		0.55	1.0	11.0	10.0		439.0617890970025	
34.0	435.6108974720046	choice	9		240					2.0	439.06624673100305	3.3930644349966315
35.0	439.0039619070012	stim	0		15	0.55	1.0	40.0	10.0		442.4593111659997	0.24957616000028793
35.0	439.2535380670015	stim	1		18	0.55	1.0	40.0	10.0		442.70888732599997	0.30054397800267907
35.0	439.5540820450042	stim	2		18	0.55	1.0	40.0	10.0		443.00943130400265	0.30015117099537747
35.0	439.85423321599956	stim	3		30	0.55	1.0	40.0	10.0		443.309582474998	0.5063359550040332
35.0	440.3605691710036	stim	4		31	0.55	1.0	40.0	10.0		443.81591843000206	0.5760584769959678
35.0	440.93662764799956	stim	5		301	0.55	1.0	40.0	10.0		444.391976906998	5.016575497000304
35.0	445.95320314499986	stim	6		18	0.55	1.0	40.0	10.0		449.4085524039983	0.30040924299828475
35.0	446.25361238799815	stim	7		18	0.55	1.0	40.0	10.0		449.7089616469966	0.29969143900234485
35.0	446.5533038270005	stim	8		36	0.55	1.0	40.0	10.0		450.00865308599896	0.6003301119999378
35.0	447.15363393900043	stim	9		23	0.55	1.0	40.0	10.0		450.6089831979989	0.3900311710021924
35.0	447.53888858199934	response	9	j		0.55	1.0	40.0	10.0		450.9942378409978	
35.0	447.5436651100026	choice	9		240					1.0	450.9990143690011	3.610373260002234
36.0	451.15403837000486	stim	0		15	0.55	1.0	40.0	20.0		454.6093876290033	0.24942470499809133
36.0	451.40346307500295	stim	1		18	0.55	1.0	40.0	20.0		454.8588123340014	0.3006266369993682
36.0	451.7040897120023	stim	2		18	0.55	1.0	40.0	20.0		455.1594389710008	0.299198767002963
36.0	452.0032884790053	stim	3		30	0.55	1.0	40.0	20.0		455.45863773800374	0.5073665019954205
36.0	452.5106549810007	stim	4		31	0.55	1.0	40.0	20.0		455.96600423999917	0.593246688004001
36.0	453.1039016690047	stim	5		300	0.55	1.0	40.0	20.0		456.55925092800317	4.999948081000184
36.0	458.1038497500049	stim	6		18	0.55	1.0	40.0	20.0		461.55919900900335	0.29991378199338214
36.0	458.40376353199827	stim	7		18	0.55	1.0	40.0	20.0		461.85911279099673	0.2992742950009415
36.0	458.7030378269992	stim	8		36	0.55	1.0	40.0	20.0		462.1583870859977	0.5999886640056502
36.0	459.30302649100486	stim	9		38	0.55	1.0	40.0	20.0		462.7583757500033	0.6403800919943023
36.0	459.93902371400327	response	9	k		0.55	1.0	40.0	20.0		463.39437297300174	
36.0	459.94340658299916	choice	9		240					2.0	463.3987558419976	3.360473937005736
37.0	463.3038805200049	stim	0		15	0.55	1.0	19.0	7.0		466.75922977900336	0.24920226099493448
37.0	463.55308278099983	stim	1		18	0.55	1.0	19.0	7.0		467.0084320399983	0.3005681180002284
37.0	463.85365089900006	stim	2		18	0.55	1.0	19.0	7.0		467.3090001579985	0.2997859220049577
37.0	464.153436821005	stim	3		30	0.55	1.0	19.0	7.0		467.6087860800035	0.4996014149946859
37.0	464.6530382359997	stim	4		36	0.55	1.0	19.0	7.0		468.10838749499817	0.6004712040012237
37.0	465.2535094400009	stim	5		300	0.55	1.0	19.0	7.0		468.7088586989994	4.999277192000591
37.0	470.2527866320015	stim	6		18	0.55	1.0	19.0	7.0		473.708135891	0.3000530369972694
37.0	470.5528396689988	stim	7		18	0.55	1.0	19.0	7.0		474.00818892799725	0.299996543006273
37.0	470.85283621200506	stim	8		36	0.55	1.0	19.0	7.0		474.3081854710035	0.599748073000228
37.0	471.4525842850053	stim	9		17	0.55	1.0	19.0	7.0		474.90793354400375	0.2889412509975955
37.0	471.7226246670034	response	9	j		0.55	1.0	19.0	7.0		475.17797392600187	
37.0	471.7415255360029	choice	9		240					1.0	475.19687479500135	3.711666998999135
38.0	475.453192535002	stim	0		15	0.55	1.0	112.0	28.0		478.9085417940005	0.24989750600070693
38.0	475.7030900410027	stim	1		18	0.55	1.0	112.0	28.0		479.1584393000012	0.2994130340011907
38.0	476.0025030750039	stim	2		18	0.55	1.0	112.0	28.0		479.4578523340024	0.3006818919966463
38.0	476.30318496700056	stim	3		30	0.55	1.0	112.0	28.0		479.75853422599903	0.5359639040034381
38.0	476.839148871004	stim	4		12	0.55	1.0	112.0	28.0		480.29449813000247	0.5915576019979198
38.0	477.4307064730019	stim	5		297	0.55	1.0	112.0	28.0		480.8860557320004	4.963078417000361
38.0	482.3937848900023	stim	6		18	0.55	1.0	112.0	28.0		485.84913414900075	0.3003858960000798
38.0	482.69417078600236	stim	7		19	0.55	1.0	112.0	28.0		486.1495200450008	0.3112162589968648
38.0	483.0053870449992	stim	8		29	0.55	1.0	112.0	28.0		486.4607363039977	0.6054109250035253
38.0	483.61079797000275	stim	9		57	0.55	1.0	112.0	28.0		487.0661472290012	0.9572956769989105
38.0	484.56308394900407	response	9	j		0.55	1.0	112.0	28.0		488.01843320800253	
38.0	484.56809364700166	choice	9		240					1.0	488.0234429060001	3.042358812002931
39.0	487.6104524590046	stim	0		14	0.55	1.0	16.0	7.0		491.06580171800306	0.23313378299644683
39.0	487.84358624200104	stim	1		18	0.55	1.0	16.0	7.0		491.2989355009995	0.29985548100376036
39.0	488.1434417230048	stim	2		18	0.55	1.0	16.0	7.0		491.59879098200327	0.3003772140000365
39.0	488.44381893700483	stim	3		30	0.55	1.0	16.0	7.0		491.8991681960033	0.5024751679957262
39.0	488.94629410500056	stim	4		32	0.55	1.0	16.0	7.0		492.401643363999	0.597304355003871
39.0	489.54359846000443	stim	5		301	0.55	1.0	16.0	7.0		492.9989477190029	5.009266424996895
39.0	494.5528648850013	stim	6		18	0.55	1.0	16.0	7.0		498.0082141439998	0.29967632300395053
39.0	494.8525412080053	stim	7		18	0.55	1.0	16.0	7.0		498.30789046700374	0.30022071399434935
39.0	495.1527619219996	stim	8		36	0.55	1.0	16.0	7.0		498.6081111809981	0.6001926910030306
39.0	495.75295461300266	stim	9		1	0.55	1.0	16.0	7.0		499.2083038720011	0.024082518997602165
39.0	495.7722645920003	response	9	j		0.55	1.0	16.0	7.0		499.22761385099875	
39.0	495.77703713200026	choice	9		240					1.0	499.2323863909987	3.976047465002921
40.0	499.7530845970032	stim	0		15	0.55	1.0	28.0	14.0		503.20843385600165	0.24956836799537996
40.0	500.00265296499856	stim	1		18	0.55	1.0	28.0	14.0		503.458002223997	0.3005435680024675
40.0	500.303196533001	stim	2		18	0.55	1.0	28.0	14.0		503.7585457919995	0.29946586200094316
40.0	500.60266239500197	stim	3		30	0.55	1.0	28.0	14.0		504.05801165400044	0.5013724890013691
40.0	501.10403488400334	stim	4		27	0.55	1.0	28.0	14.0		504.5593841430018	0.593785739998566
40.0	501.6978206240019	stim	5		301	0.55	1.0	28.0	14.0		505.1531698830004	5.004446687999007
40.0	503.21288481000374	response	5	k		0.55	1.0	28.0	14.0		506.6682340690022	
40.0	506.7022673120009	stim	6		18	0.55	1.0	28.0	14.0		510.1576165709994	0.3004410490029841
40.0	507.0027083610039	stim	7		18	0.55	1.0	28.0	14.0		510.45805762000236	0.29952446799870813
40.0	507.3022328290026	stim	8		36	0.55	1.0	28.0	14.0		510.7575820880011	0.600123326999892
40.0	507.9023561560025	stim	9		11	0.55	1.0	28.0	14.0		511.35770541500096	0.18971375699766213
40.0	508.0877302420049	response	9	k		0.55	1.0	28.0	14.0		511.5430795010034	
40.0	508.09206991300016	choice	9		240					2.0	511.5474191719986	3.8105950290046167
3.0	511.9026649420048	stim	0		403						515.3580142010032	6.7161639139958424
3.0	518.6046080060041	response	0	j							522.0599572650026	
3.0	518.6188288560006	stim	0		301						522.0741781149991	5.017341259001114
41.0	523.6361701150017	stim	0		15	1.0	0.55	7.0	11.0		527.0915193740002	0.24984414200298488
41.0	523.8860142570047	stim	1		18	1.0	0.55	7.0	11.0		527.3413635160032	0.2992800449937931
41.0	524.1852943019985	stim	2		18	1.0	0.55	7.0	11.0		527.640643560997	0.30071227800362976
41.0	524.4860065800021	stim	3		30	1.0	0.55	7.0	11.0		527.9413558390006	0.49923624000075506
41.0	524.9852428200029	stim	4		36	1.0	0.55	7.0	11.0		528.4405920790014	0.5999999119958375
41.0	525.5852427319987	stim	5		300	1.0	0.55	7.0	11.0		529.0405919909972	5.0005840770027135
41.0	530.5858268090014	stim	6		18	1.0	0.55	7.0	11.0		534.0411760679999	0.2995627229975071
41.0	530.885389531999	stim	7		18	1.0	0.55	7.0	11.0		534.3407387909974	0.3006403470062651
41.0	531.1860298790052	stim	8		36	1.0	0.55	7.0	11.0		534.6413791380037	0.5998032179995789
41.0	531.7858330970048	stim	9		18	1.0	0.55	7.0	11.0		535.2411823560033	0.30697842899826355
41.0	532.0881018810032	response	9	j		1.0	0.55	7.0	11.0		535.5434511400017	
41.0	532.0928115260031	choice	9		240					1.0	535.5481607850015	3.6929563590019825
42.0	535.785767885005	stim	0		15	1.0	0.55	10.0	23.0		539.2411171440035	0.24929150399839273
42.0	536.0350593890034	stim	1		18	1.0	0.55	10.0	23.0		539.4904086480019	0.3000957809999818
42.0	536.3351551700034	stim	2		18	1.0	0.55	10.0	23.0		539.7905044290019	0.2999279149953509
42.0	536.6350830849988	stim	3		30	1.0	0.55	10.0	23.0		540.0904323439972	0.5004141410026932
42.0	537.1354972260015	stim	4		36	1.0	0.55	10.0	23.0		540.5908464849999	0.5996058669988997
42.0	537.7351030930004	stim	5		300	1.0	0.55	10.0	23.0		541.1904523519988	5.00032019700302
42.0	538.0551835290025	response	5	k		1.0	0.55	10.0	23.0		541.510532788001	
42.0	542.7354232900034	stim	6		18	1.0	0.55	10.0	23.0		546.1907725490018	0.30008811799780233
42.0	543.0355114080012	stim	7		18	1.0	0.55	10.0	23.0		546.4908606669997	0.29954061200260185
42.0	543.3350520200038	stim	8		36	1.0	0.55	10.0	23.0		546.7904012790023	0.6003126299983705
42.0	543.9353646500022	stim	9		19	1.0	0.55	10.0	23.0		547.3907139090006	0.32280588999856263
42.0	544.2538010310018	response	9	k		1.0	0.55	10.0	23.0		547.7091502900003	
42.0	544.2581705400007	choice	9		240					2.0	547.7135197989992	3.6774061920004897
43.0	547.9355767320012	stim	0		15	1.0	0.55	28.0	112.0		551.3909259909997	0.24982667499716626
43.0	548.1854034069984	stim	1		18	1.0	0.55	28.0	112.0		551.6407526659968	0.30014478800148936
43.0	548.4855481949999	stim	2		18	1.0	0.55	28.0	112.0		551.9408974539983	0.29966117499861866
43.0	548.7852093699985	stim	3		30	1.0	0.55	28.0	112.0		552.240558628997	0.4993109600036405
43.0	549.2845203300021	stim	4		26	1.0	0.55	28.0	112.0		552.7398695890006	0.5962741670009564
43.0	549.8807944970031	stim	5		301	1.0	0.55	28.0	112.0		553.3361437560015	5.004430611996213
43.0	554.8852251089993	stim	6		18	1.0	0.55	28.0	112.0		558.3405743679978	0.2994842760017491
43.0	555.184709385001	stim	7		18	1.0	0.55	28.0	112.0		558.6400586439995	0.3341341889972682
43.0	555.5188435739983	stim	8		12	1.0	0.55	28.0	112.0		558.9741928329968	0.5925071940000635
43.0	556.1113507679984	stim	9		28	1.0	0.55	28.0	112.0		559.5667000269968	0.4708793030004017
43.0	556.5774338650008	response	9	k		1.0	0.55	28.0	112.0		560.0327831239993	
43.0	556.5822300709988	choice	9		238					2.0	560.0375793299972	3.491021276000538
44.0	560.0732513469993	stim	0		15	1.0	0.55	7.0	28.0		563.5286006059978	0.2527591329999268
44.0	560.3260104799992	stim	1		18	1.0	0.55	7.0	28.0		563.7813597389977	0.2996356069998001
44.0	560.625646086999	stim	2		18	1.0	0.55	7.0	28.0		564.0809953459975	0.3003865480059176
44.0	560.926032635005	stim	3		30	1.0	0.55	7.0	28.0		564.3813818940034	0.49989586099400185
44.0	561.425928495999	stim	4		36	1.0	0.55	7.0	28.0		564.8812777549974	0.5997500230005244
44.0	562.0256785189995	stim	5		300	1.0	0.55	7.0	28.0		565.481027777998	5.009156448002614
44.0	567.0348349670021	stim	6		18	1.0	0.55	7.0	28.0		570.4901842260006	0.300152548996266
44.0	567.3349875159984	stim	7		18	1.0	0.55	7.0	28.0		570.7903367749968	0.3013247870039777
44.0	567.6363123030023	stim	8		29	1.0	0.55	7.0	28.0		571.0916615620008	0.5889685759975691
44.0	568.2252808789999	stim	9		6	1.0	0.55	7.0	28.0		571.6806301379984	0.10771882200060645
44.0	568.3277230950043	response	9	k		1.0	0.55	7.0	28.0		571.7830723540028	
44.0	568.3329997010005	choice	9		240					2.0	571.788348959999	3.8924005400040187
45.0	572.2254002410045	stim	0		14	1.0	0.55	28.0	39.0		575.680749500003	0.24977294499694835
45.0	572.4751731860015	stim	1		18	1.0	0.55	28.0	39.0		575.930522445	0.3002981350000482
45.0	572.7754713210015	stim	2		18	1.0	0.55	28.0	39.0		576.23082058	0.30045269599941093
45.0	573.075924017001	stim	3		30	1.0	0.55	28.0	39.0		576.5312732759994	0.5056013170033111
45.0	573.5815253340043	stim	4		27	1.0	0.55	28.0	39.0		577.0368745930027	0.596376417997817
45.0	574.1779017520021	stim	5		301	1.0	0.55	28.0	39.0		577.6332510110005	5.006786368998291
45.0	579.1846881210004	stim	6		18	1.0	0.55	28.0	39.0		582.6400373799988	0.3000025959991035
45.0	579.4846907169995	stim	7		18	1.0	0.55	28.0	39.0		582.9400399759979	0.3027462669997476
45.0	579.7874369839992	stim	8		32	1.0	0.55	28.0	39.0		583.2427862429977	0.5954019679993507
45.0	580.3828389519986	stim	9		41	1.0	0.55	28.0	39.0		583.838188210997	0.6924438320056652
45.0	581.070599521001	response	9	k		1.0	0.55	28.0	39.0		584.5259487799995	
45.0	581.0752827840042	choice	9		240					2.0	584.5306320430027	3.3089875419973396
46.0	584.3842703260016	stim	0		15	1.0	0.55	10.0	16.0		587.839619585	0.25003750400355784
46.0	584.6343078300051	stim	1		18	1.0	0.55	10.0	16.0		588.0896570890036	0.29974814899469493
46.0	584.9340559789998	stim	2		18	1.0	0.55	10.0	16.0		588.3894052379983	0.3004547480013571
46.0	585.2345107270012	stim	3		30	1.0	0.55	10.0	16.0		588.6898599859996	0.5001703559973976
46.0	585.7346810829986	stim	4		36	1.0	0.55	10.0	16.0		589.190030341997	0.6002121600031387
46.0	586.3348932430017	stim	5		300	1.0	0.55	10.0	16.0		589.7902425020002	4.99914472099772
46.0	591.3340379639994	stim	6		18	1.0	0.55	10.0	16.0		594.7893872229979	0.3005822800041642
46.0	591.6346202440036	stim	7		18	1.0	0.55	10.0	16.0		595.0899695030021	0.29978144399501616
46.0	591.9344016879986	stim	8		36	1.0	0.55	10.0	16.0		595.3897509469971	0.6211992190001183
46.0	592.5556009069987	stim	9		20	1.0	0.55	10.0	16.0		596.0109501659972	0.3427649770019343
46.0	592.8935917210038	response	9	j		1.0	0.55	10.0	16.0		596.3489409800022	
46.0	592.8983658840007	choice	9		239					1.0	596.3537151429991	3.635624643000483
47.0	596.5339905270012	stim	0		15	1.0	0.55	20.0	67.0		599.9893397859996	0.24995965899870498
47.0	596.7839501859999	stim	1		18	1.0	0.55	20.0	67.0		600.2392994449983	0.3002475469984347
47.0	597.0841977329983	stim	2		18	1.0	0.55	20.0	67.0		600.5395469919968	0.300140569001087
47.0	597.3843383019994	stim	3		30	1.0	0.55	20.0	67.0		600.8396875609978	0.49987369299924467
47.0	597.8842119949986	stim	4		36	1.0	0.55	20.0	67.0		601.3395612539971	0.600107697006024
47.0	598.4438201520024	response	4	k		1.0	0.55	20.0	67.0		601.8991694110009	
47.0	598.4843196920046	stim	5		300	1.0	0.55	20.0	67.0		601.9396689510031	4.999723701999756
47.0	599.0038799969989	response	5	k		1.0	0.55	20.0	67.0		602.4592292559973	
47.0	599.3024433380051	response	5	j		1.0	0.55	20.0	67.0		602.7577925970036	
47.0	600.0200576880015	response	5	k		1.0	0.55	20.0	67.0		603.475406947	
47.0	603.4840433940044	stim	6		18	1.0	0.55	20.0	67.0		606.9393926530029	0.3005217489990173
47.0	603.7845651430034	stim	7		18	1.0	0.55	20.0	67.0		607.2399144020019	0.3154585359952762
47.0	604.1000236789987	stim	8		17	1.0	0.55	20.0	67.0		607.5553729379972	0.5914037250040565
47.0	604.6914274040028	stim	9		6	1.0	0.55	20.0	67.0		608.1467766630012	0.10690105099638458
47.0	604.7936873360013	response	9	k		1.0	0.55	20.0	67.0		608.2490365949998	
47.0	604.7983284549991	choice	9		239					2.0	608.2536777139976	3.876349479003693
48.0	608.6746779340028	stim	0		16	1.0	0.55	7.0	9.0		612.1300271930013	0.2590285319965915
48.0	608.9337064659994	stim	1		18	1.0	0.55	7.0	9.0		612.3890557249979	0.30042859700188274
48.0	609.2341350630013	stim	2		18	1.0	0.55	7.0	9.0		612.6894843219998	0.2996847169997636
48.0	609.5338197800011	stim	3		30	1.0	0.55	7.0	9.0		612.9891690389995	0.49994322300335625
48.0	610.0337630030044	stim	4		36	1.0	0.55	7.0	9.0		613.4891122620029	0.6005884959959076
48.0	610.6343514990003	stim	5		300	1.0	0.55	7.0	9.0		614.0897007579988	4.999719432002166
48.0	610.8231833790051	response	5	k		1.0	0.55	7.0	9.0		614.2785326380035	
48.0	611.1354225370014	response	5	j		1.0	0.55	7.0	9.0		614.5907717959999	
48.0	611.7697963430037	response	5	k		1.0	0.55	7.0	9.0		615.2251456020022	
48.0	612.2866884789983	response	5	j		1.0	0.55	7.0	9.0		615.7420377379967	
48.0	615.6340709310025	stim	6		18	1.0	0.55	7.0	9.0		619.089420190001	0.3001470649978728
48.0	615.9342179960004	stim	7		18	1.0	0.55	7.0	9.0		619.3895672549988	0.29988654000044335
48.0	616.2341045360008	stim	8		36	1.0	0.55	7.0	9.0		619.6894537949993	0.5993433750045369
48.0	616.8334479110054	stim	9		15	1.0	0.55	7.0	9.0		620.2887971700038	0.25645186299516354
48.0	617.085570674004	response	9	k		1.0	0.55	7.0	9.0		620.5409199330024	
48.0	617.0898997740005	choice	9		240					2.0	620.545249032999	3.74384889400244
49.0	620.833748668003	stim	0		15	1.0	0.55	10.0	11.0		624.2890979270014	0.2500331679984811
49.0	621.0837818360014	stim	1		18	1.0	0.55	10.0	11.0		624.5391310949999	0.2999994389974745
49.0	621.3837812749989	stim	2		18	1.0	0.55	10.0	11.0		624.8391305339974	0.29979876300058095
49.0	621.6835800379995	stim	3		30	1.0	0.55	10.0	11.0		625.138929296998	0.5003432110024733
49.0	622.183923249002	stim	4		36	1.0	0.55	10.0	11.0		625.6392725080004	0.6075132309997571
49.0	622.7914364800017	stim	5		300	1.0	0.55	10.0	11.0		626.2467857390002	4.99207766699692
49.0	627.7835141469986	stim	6		18	1.0	0.55	10.0	11.0		631.2388634059971	0.3004482060059672
49.0	628.0839623530046	stim	7		18	1.0	0.55	10.0	11.0		631.5393116120031	0.29991827899357304
49.0	628.3838806319982	stim	8		36	1.0	0.55	10.0	11.0		631.8392298909966	0.6001232390044606
49.0	628.9840038710026	stim	9		57	1.0	0.55	10.0	11.0		632.4393531300011	0.9573889890016289
49.0	629.9366326009986	response	9	k		1.0	0.55	10.0	11.0		633.391981859997	
49.0	629.9413928600043	choice	9		240					2.0	633.3967421190027	3.0424696049958584
50.0	632.9838624650001	stim	0		15	1.0	0.55	14.0	56.0		636.4392117239986	0.24941383200348355
50.0	633.2332762970036	stim	1		18	1.0	0.55	14.0	56.0		636.6886255560021	0.30081062999670394
50.0	633.5340869270003	stim	2		18	1.0	0.55	14.0	56.0		636.9894361859988	0.2999290869993274
50.0	633.8340160139996	stim	3		30	1.0	0.55	14.0	56.0		637.2893652729981	0.49961596900539007
50.0	634.333631983005	stim	4		36	1.0	0.55	14.0	56.0		637.7889812420035	0.6001360339942039
50.0	634.9337680169992	stim	5		300	1.0	0.55	14.0	56.0		638.3891172759977	4.999417684004584
50.0	639.9331857010038	stim	6		18	1.0	0.55	14.0	56.0		643.3885349600023	0.3003059639959247
50.0	640.2334916649997	stim	7		18	1.0	0.55	14.0	56.0		643.6888409239982	0.31058384800417116
50.0	640.5440755130039	stim	8		24	1.0	0.55	14.0	56.0		643.9994247720024	0.5726565639997716
50.0	641.1167320770037	stim	9		21	1.0	0.55	14.0	56.0		644.5720813360022	0.3559805080003571
50.0	641.4683210190051	response	9	k		1.0	0.55	14.0	56.0		644.9236702780036	
50.0	641.472712585004	choice	9		241					2.0	644.9280618440025	3.6604592119983863
3.0	645.1331717970024	stim	0		300						648.5885210560009	5.000048818001233
51.0	650.1332206150037	stim	0		15	0.55	1.0	94.0	28.0		653.5885698740021	0.2503017369963345
51.0	650.383522352	stim	1		18	0.55	1.0	94.0	28.0		653.8388716109985	0.29987113200331805
51.0	650.6833934840033	stim	2		18	0.55	1.0	94.0	28.0		654.1387427430018	0.2999769550006022
51.0	650.9833704390039	stim	3		30	0.55	1.0	94.0	28.0		654.4387196980024	0.527288729994325
51.0	651.5106591689982	stim	4		13	0.55	1.0	94.0	28.0		654.9660084279967	0.5663072870011092
51.0	652.0769664559994	stim	5		299	0.55	1.0	94.0	28.0		655.5323157149978	4.997198880999349
51.0	657.0741653369987	stim	6		19	0.55	1.0	94.0	28.0		660.5295145959972	0.3092997950006975
51.0	657.3834651319994	stim	7		18	0.55	1.0	94.0	28.0		660.8388143909979	0.29979400600132067
51.0	657.6832591380007	stim	8		36	0.55	1.0	94.0	28.0		661.1386083969992	0.5999377150001237
51.0	658.2831968530008	stim	9		81	0.55	1.0	94.0	28.0		661.7385461119993	1.3567001640039962
51.0	659.6354183420044	response	9	k		0.55	1.0	94.0	28.0		663.0907676010029	
51.0	659.6398970170048	choice	9		240					2.0	663.0952462760033	2.6437071619948256
52.0	662.2836041789997	stim	0		15	0.55	1.0	39.0	14.0		665.7389534379981	0.250174186003278
52.0	662.533778365003	stim	1		18	0.55	1.0	39.0	14.0		665.9891276240014	0.2997254459987744
52.0	662.8335038110017	stim	2		18	0.55	1.0	39.0	14.0		666.2888530700002	0.2993293760009692
52.0	663.1328331870027	stim	3		30	0.55	1.0	39.0	14.0		666.5881824460012	0.5053746499979752
52.0	663.6382078370007	stim	4		32	0.55	1.0	39.0	14.0		667.0935570959991	0.5952256390010007
52.0	664.2334334760017	stim	5		300	0.55	1.0	39.0	14.0		667.6887827350001	4.999289466002665
52.0	669.2327229420043	stim	6		18	0.55	1.0	39.0	14.0		672.6880722010028	0.3004104079955141
52.0	669.5331333499998	stim	7		18	0.55	1.0	39.0	14.0		672.9884826089983	0.2997997730053612
52.0	669.8329331230052	stim	8		34	0.55	1.0	39.0	14.0		673.2882823820037	0.5707646159935393
52.0	670.3934402680025	response	8	j		0.55	1.0	39.0	14.0		673.8487895270009	
52.0	670.4036977389987	choice	8		36					1.0	673.8590469979972	0.029243224002129864
52.0	670.4329409630009	stim	9		240	0.55	1.0	39.0	14.0		673.8882902219993	3.999998648003384
52.0	671.1844526690038	response	9	l		0.55	1.0	39.0	14.0		674.6398019280023	
53.0	674.4329396110043	stim	0		15	0.55	1.0	28.0	20.0		677.8882888700027	0.24980987199523952
53.0	674.6827494829995	stim	1		18	0.55	1.0	28.0	20.0		678.138098741998	0.3000998380011879
53.0	674.9828493210007	stim	2		18	0.55	1.0	28.0	20.0		678.4381985799992	0.3005043410012149
53.0	675.2833536620019	stim	3		30	0.55	1.0	28.0	20.0		678.7387029210004	0.49931340599869145
53.0	675.7826670680006	stim	4		34	0.55	1.0	28.0	20.0		679.2380163269991	0.5947287759991013
53.0	676.3773958439997	stim	5		301	0.55	1.0	28.0	20.0		679.8327451029982	5.0058063059987035
53.0	681.3832021499984	stim	6		18	0.55	1.0	28.0	20.0		684.8385514089969	0.29987160800374113
53.0	681.6830737580021	stim	7		18	0.55	1.0	28.0	20.0		685.1384230170006	0.29932465899764793
53.0	681.9823984169998	stim	8		36	0.55	1.0	28.0	20.0		685.4377476759983	0.6007575969997561
53.0	682.5831560139995	stim	9		9	0.55	1.0	28.0	20.0		686.038505272998	0.15709838500333717
53.0	682.7353257729992	response	9	k		0.55	1.0	28.0	20.0		686.1906750319977	
53.0	682.7402543990029	choice	9		240					2.0	686.1956036580013	3.842569961998379
54.0	686.5828243610013	stim	0		15	0.55	1.0	67.0	20.0		690.0381736199997	0.249654430001101
54.0	686.8324787910024	stim	1		18	0.55	1.0	67.0	20.0		690.2878280500008	0.30064608700195095
54.0	687.1331248780043	stim	2		18	0.55	1.0	67.0	20.0		690.5884741370028	0.2993548269951134
54.0	687.4324797049994	stim	3		30	0.55	1.0	67.0	20.0		690.8878289639979	0.5140927500033285
54.0	687.9465724550028	stim	4		17	0.55	1.0	67.0	20.0		691.4019217140012	0.5934506229968974
54.0	688.5400230779996	stim	5		299	0.55	1.0	67.0	20.0		691.9953723369981	4.983320006002032
54.0	693.5233430840017	stim	6		18	0.55	1.0	67.0	20.0		696.9786923430001	0.3001897669964819
54.0	693.8235328509982	stim	7		18	0.55	1.0	67.0	20.0		697.2788821099966	0.3027088030066807
54.0	694.1262416540048	stim	8		31	0.55	1.0	67.0	20.0		697.5815909130033	0.614333371995599
54.0	694.7405750260004	stim	9		38	0.55	1.0	67.0	20.0		698.1959242849989	0.6397818350014859
54.0	695.3758203960024	response	9	k		0.55	1.0	67.0	20.0		698.8311696550008	
54.0	695.3803568610019	choice	9		240					2.0	698.8357061200004	3.3524815470009344
55.0	698.7328384080029	stim	0		15	0.55	1.0	80.0	20.0		702.1881876670013	0.24949456100148382
55.0	698.9823329690043	stim	1		18	0.55	1.0	80.0	20.0		702.4376822280028	0.3004441949960892
55.0	699.2827771640004	stim	2		18	0.55	1.0	80.0	20.0		702.7381264229989	0.2999869100021897
55.0	699.5827640740026	stim	3		30	0.55	1.0	80.0	20.0		703.0381133330011	0.5195822070018039
55.0	700.1023462810044	stim	4		15	0.55	1.0	80.0	20.0		703.5576955400029	0.5934614219950163
55.0	700.6958077029994	stim	5		298	0.55	1.0	80.0	20.0		704.1511569619979	4.9773189010011265
55.0	705.6731266040006	stim	6		18	0.55	1.0	80.0	20.0		709.128475862999	0.29990175199782243
55.0	705.9730283559984	stim	7		18	0.55	1.0	80.0	20.0		709.4283776149969	0.305052086005162
55.0	706.2780804420036	stim	8		28	0.55	1.0	80.0	20.0		709.733429701002	0.5727376709983218
55.0	706.8464846179995	response	8	j		0.55	1.0	80.0	20.0		710.301833876998	
55.0	706.8508181130019	choice	8		30					1.0	710.3061673720003	0.030453696002950892
55.0	706.8812718090048	stim	9		240	0.55	1.0	80.0	20.0		710.3366210680033	3.9917245100004948
56.0	710.8729963190053	stim	0		16	0.55	1.0	20.0	10.0		714.3283455780038	0.25920252399373567
56.0	711.1321988429991	stim	1		18	0.55	1.0	20.0	10.0		714.5875481019975	0.30076471700158436
56.0	711.4329635600006	stim	2		18	0.55	1.0	20.0	10.0		714.8883128189991	0.2999426050009788
56.0	711.7329061650016	stim	3		30	0.55	1.0	20.0	10.0		715.1882554240001	0.4990807930007577
56.0	712.2319869580024	stim	4		36	0.55	1.0	20.0	10.0		715.6873362170008	0.6005341350028175
56.0	712.8325210930052	stim	5		300	0.55	1.0	20.0	10.0		716.2878703520037	4.999811088993738
56.0	717.8323321819989	stim	6		18	0.55	1.0	20.0	10.0		721.2876814409974	0.2999762270046631
56.0	718.1323084090036	stim	7		18	0.55	1.0	20.0	10.0		721.5876576680021	0.3002525580013753
56.0	718.432560967005	stim	8		36	0.55	1.0	20.0	10.0		721.8879102260034	0.5997031890001381
56.0	719.0322641560051	stim	9		9	0.55	1.0	20.0	10.0		722.4876134150036	0.15627190899976995
56.0	719.1841571859986	response	9	j		0.55	1.0	20.0	10.0		722.6395064449971	
56.0	719.1885360650049	choice	9		240					1.0	722.6438853240033	3.8433660629962105
57.0	723.0319021280011	stim	0		15	0.55	1.0	9.0	7.0		726.4872513869996	0.2502514340012567
57.0	723.2821535620023	stim	1		18	0.55	1.0	9.0	7.0		726.7375028210008	0.2998304590000771
57.0	723.5819840210024	stim	2		18	0.55	1.0	9.0	7.0		727.0373332800009	0.30057467000006
57.0	723.8825586910025	stim	3		30	0.55	1.0	9.0	7.0		727.337907950001	0.4998880810016999
57.0	724.3824467720042	stim	4		36	0.55	1.0	9.0	7.0		727.8377960310027	0.5996582039952045
57.0	724.9821049759994	stim	5		300	0.55	1.0	9.0	7.0		728.4374542349979	5.00033571899985
57.0	729.9824406949992	stim	6		18	0.55	1.0	9.0	7.0		733.4377899539977	0.2999718610008131
57.0	730.282412556	stim	7		18	0.55	1.0	9.0	7.0		733.7377618149985	0.2999990220050677
57.0	730.5824115780051	stim	8		36	0.55	1.0	9.0	7.0		734.0377608370036	0.5999064249990624
57.0	731.1823180030042	stim	9		53	0.55	1.0	9.0	7.0		734.6376672620027	0.8899497969978256
57.0	732.0677026660051	response	9	k		0.55	1.0	9.0	7.0		735.5230519250035	
57.0	732.072267800002	choice	9		240					2.0	735.5276170590005	3.1099912249992485
58.0	735.1822590250013	stim	0		15	0.55	1.0	28.0	7.0		738.6376082839997	0.24995837899768958
58.0	735.432217403999	stim	1		18	0.55	1.0	28.0	7.0		738.8875666629974	0.299804172005679
58.0	735.7320215760046	stim	2		18	0.55	1.0	28.0	7.0		739.1873708350031	0.30032031199516496
58.0	736.0323418879998	stim	3		30	0.55	1.0	28.0	7.0		739.4876911469983	0.49992871600261424
58.0	736.5322706040024	stim	4		32	0.55	1.0	28.0	7.0		739.9876198630009	0.6073880749972886
58.0	737.1396586789997	stim	5		300	0.55	1.0	28.0	7.0		740.5950079379982	4.992685793004057
58.0	742.1323444720038	stim	6		18	0.55	1.0	28.0	7.0		745.5876937310022	0.2992494989957777
58.0	742.4315939709995	stim	7		18	0.55	1.0	28.0	7.0		745.886943229998	0.29999116199905984
58.0	742.7315851329986	stim	8		36	0.55	1.0	28.0	7.0		746.186934391997	0.6007406390053802
58.0	743.332325772004	stim	9		31	0.55	1.0	28.0	7.0		746.7876750310024	0.5232565119949868
58.0	743.8505803270018	response	9	j		0.55	1.0	28.0	7.0		747.3059295860003	
58.0	743.855582283999	choice	9		240					1.0	747.3109315429974	3.476541611002176
59.0	747.3321238950011	stim	0		15	0.55	1.0	23.0	14.0		750.7874731539996	0.25013364799815463
59.0	747.5822575429993	stim	1		18	0.55	1.0	23.0	14.0		751.0376068019978	0.3000291130010737
59.0	747.8822866560004	stim	2		18	0.55	1.0	23.0	14.0		751.3376359149988	0.29928832600126043
59.0	748.1815749820016	stim	3		30	0.55	1.0	23.0	14.0		751.6369242410001	0.5004232369974488
59.0	748.6819982189991	stim	4		36	0.55	1.0	23.0	14.0		752.1373474779975	0.599563299001602
59.0	749.2815615180007	stim	5		300	0.55	1.0	23.0	14.0		752.7369107769991	5.000419103002059
59.0	754.2819806210027	stim	6		18	0.55	1.0	23.0	14.0		757.7373298800012	0.29946252099762205
59.0	754.5814431420004	stim	7		18	0.55	1.0	23.0	14.0		758.0367924009988	0.29976335300307255
59.0	754.8812064950034	stim	8		36	0.55	1.0	23.0	14.0		758.3365557540019	0.6006420769990655
59.0	755.4818485720025	stim	9		16	0.55	1.0	23.0	14.0		758.937197831001	0.2727492429985432
59.0	755.7499511409987	response	9	j		0.55	1.0	23.0	14.0		759.2053003999972	
59.0	755.754597815001	choice	9		240					1.0	759.2099470739995	3.7265836400038097
60.0	759.4811814550048	stim	0		15	0.55	1.0	19.0	14.0		762.9365307140033	0.25006496499554487
60.0	759.7312464200004	stim	1		18	0.55	1.0	19.0	14.0		763.1865956789989	0.3005462310029543
60.0	760.0317926510033	stim	2		18	0.55	1.0	19.0	14.0		763.4871419100018	0.2999043719973997
60.0	760.3316970230007	stim	3		30	0.55	1.0	19.0	14.0		763.7870462819992	0.4996985899997526
60.0	760.8313956130005	stim	4		36	0.55	1.0	19.0	14.0		764.286744871999	0.5999114080041181
60.0	761.4313070210046	stim	5		300	0.55	1.0	19.0	14.0		764.8866562800031	4.9999028089951025
60.0	766.4312098299997	stim	6		18	0.55	1.0	19.0	14.0		769.8865590889982	0.2999965470007737
60.0	766.7312063770005	stim	7		18	0.55	1.0	19.0	14.0		770.186555635999	0.29960932500398485
60.0	767.0308157020045	stim	8		36	0.55	1.0	19.0	14.0		770.4861649610029	0.6007855989955715
60.0	767.631601301	stim	9		54	0.55	1.0	19.0	14.0		771.0869505599985	0.9074971599984565
60.0	768.5339393059985	response	9	k		0.55	1.0	19.0	14.0		771.989288564997	
60.0	768.5390984609985	choice	9		240					2.0	771.994447719997	3.0924120790004963
4.0	771.631510539999	stim	0		195						775.0868597989975	3.250071886002843
4.0	774.8511310360045	response	0	j							778.306480295003	
4.0	774.8815824260018	stim	0		301						778.3369316850003	5.016015084998799
61.0	779.8975975110006	stim	0		15	0.55	1.0	47.0	14.0		783.3529467699991	0.2500418220006395
61.0	780.1476393330013	stim	1		18	0.55	1.0	47.0	14.0		783.6029885919997	0.3002344220003579
61.0	780.4478737550016	stim	2		18	0.55	1.0	47.0	14.0		783.9032230140001	0.29993326700059697
61.0	780.7478070220022	stim	3		30	0.55	1.0	47.0	14.0		784.2031562810007	0.5063640549997217
61.0	781.254171077002	stim	4		28	0.55	1.0	47.0	14.0		784.7095203360004	0.5936390779970679
61.0	781.847810154999	stim	5		300	0.55	1.0	47.0	14.0		785.3031594139975	4.999878539005294
61.0	786.8476886940043	stim	6		18	0.55	1.0	47.0	14.0		790.3030379530028	0.2997374749975279
61.0	787.1474261690018	stim	7		18	0.55	1.0	47.0	14.0		790.6027754280003	0.29995658400002867
61.0	787.4473827530019	stim	8		36	0.55	1.0	47.0	14.0		790.9027320120003	0.600127812998835
61.0	788.0475105660007	stim	9		240	0.55	1.0	47.0	14.0		791.5028598249992	3.999821438002982
62.0	792.0473320040037	stim	0		15	0.55	1.0	14.0	10.0		795.5026812630022	0.2501219139958266
62.0	792.2974539179995	stim	1		18	0.55	1.0	14.0	10.0		795.752803176998	0.30012159600300947
62.0	792.5975755140025	stim	2		18	0.55	1.0	14.0	10.0		796.052924773001	0.2998426569974981
62.0	792.897418171	stim	3		30	0.55	1.0	14.0	10.0		796.3527674299985	0.5000932170005399
62.0	793.3975113880006	stim	4		36	0.55	1.0	14.0	10.0		796.852860646999	0.6002051149989711
62.0	793.9977165029995	stim	5		300	0.55	1.0	14.0	10.0		797.453065761998	4.999318791000405
62.0	794.9836684020047	response	5	j		0.55	1.0	14.0	10.0		798.4390176610032	
62.0	795.5326299590015	response	5	j		0.55	1.0	14.0	10.0		798.987979218	
62.0	795.7332499609984	response	5	j		0.55	1.0	14.0	10.0		799.1885992199968	
62.0	796.2334393659985	response	5	k		0.55	1.0	14.0	10.0		799.688788624997	
62.0	798.9970352939999	stim	6		18	0.55	1.0	14.0	10.0		802.4523845529984	0.30008310500124935
62.0	799.2971183990012	stim	7		18	0.55	1.0	14.0	10.0		802.7524676579997	0.30049939599848585
62.0	799.5976177949997	stim	8		36	0.55	1.0	14.0	10.0		803.0529670539981	0.6001018730021315
62.0	800.1977196680018	stim	9		56	0.55	1.0	14.0	10.0		803.6530689270003	0.9389778120021219
62.0	801.132563539999	response	9	k		0.55	1.0	14.0	10.0		804.5879127989974	
62.0	801.1366974800039	choice	9		240					2.0	804.5920467390024	3.0610131770008593
63.0	804.1977106570048	stim	0		15	0.55	1.0	47.0	20.0		807.6530599160033	0.24951392599905375
63.0	804.4472245830038	stim	1		18	0.55	1.0	47.0	20.0		807.9025738420023	0.30001282000012
63.0	804.747237403004	stim	2		18	0.55	1.0	47.0	20.0		808.2025866620024	0.30022130900033517
63.0	805.0474587120043	stim	3		30	0.55	1.0	47.0	20.0		808.5028079710028	0.5087417749964516
63.0	805.5562004870008	stim	4		28	0.55	1.0	47.0	20.0		809.0115497459992	0.5909610149974469
63.0	806.1471615019982	stim	5		300	0.55	1.0	47.0	20.0		809.6025107609967	5.000388252003177
63.0	811.1475497540014	stim	6		18	0.55	1.0	47.0	20.0		814.6028990129998	0.29998291099764174
63.0	811.447532664999	stim	7		18	0.55	1.0	47.0	20.0		814.9028819239975	0.2995054519997211
63.0	811.7470381169987	stim	8		30	0.55	1.0	47.0	20.0		815.2023873759972	0.5975009040048462
63.0	812.3445390210036	stim	9		37	0.55	1.0	47.0	20.0		815.799888280002	0.6168657649977831
63.0	812.9571391080026	response	9	k		0.55	1.0	47.0	20.0		816.4124883670011	
63.0	812.9614047860014	choice	9		239					2.0	816.4167540449998	3.376514258001407
64.0	816.3379190440028	stim	0		15	0.55	1.0	56.0	14.0		819.7932683030012	0.250336764001986
64.0	816.5882558080048	stim	1		18	0.55	1.0	56.0	14.0		820.0436050670032	0.299905719999515
64.0	816.8881615280043	stim	2		18	0.55	1.0	56.0	14.0		820.3435107870027	0.2998249320007744
64.0	817.187986460005	stim	3		30	0.55	1.0	56.0	14.0		820.6433357190035	0.5157580089944531
64.0	817.7037444689995	stim	4		19	0.55	1.0	56.0	14.0		821.159093727998	0.5902628149997327
64.0	818.2940072839992	stim	5		301	0.55	1.0	56.0	14.0		821.7493565429977	5.003193907003151
64.0	823.2972011910024	stim	6		18	0.55	1.0	56.0	14.0		826.7525504500009	0.300162931001978
64.0	823.5973641220044	stim	7		18	0.55	1.0	56.0	14.0		827.0527133810028	0.29949063799722353
64.0	823.8968547600016	stim	8		36	0.55	1.0	56.0	14.0		827.352204019	0.5999921070033452
64.0	824.4968468670049	stim	9		1	0.55	1.0	56.0	14.0		827.9521961260034	0.022919529998034704
64.0	824.5152632079989	response	9	j		0.55	1.0	56.0	14.0		827.9706124669974	
64.0	824.519766397003	choice	9		240					1.0	827.9751156560014	3.976948443996662
65.0	828.4967148409996	stim	0		15	0.55	1.0	79.0	28.0		831.9520640999981	0.25038854200101923
65.0	828.7471033830006	stim	1		18	0.55	1.0	79.0	28.0		832.2024526419991	0.30017834799946286
65.0	829.0472817310001	stim	2		18	0.55	1.0	79.0	28.0		832.5026309899986	0.3001377219989081
65.0	829.347419452999	stim	3		30	0.55	1.0	79.0	28.0		832.8027687119975	0.5166835590061964
65.0	829.8641030120052	stim	4		15	0.55	1.0	79.0	28.0		833.3194522710037	0.5789781019993825
65.0	830.4430811140046	stim	5		301	0.55	1.0	79.0	28.0		833.8984303730031	5.0040889640004025
65.0	835.447170078005	stim	6		18	0.55	1.0	79.0	28.0		838.9025193370035	0.29974382699583657
65.0	835.7469139050008	stim	7		18	0.55	1.0	79.0	28.0		839.2022631639993	0.29949549899902195
65.0	836.0464094039999	stim	8		36	0.55	1.0	79.0	28.0		839.5017586629983	0.600119225004164
65.0	836.646528629004	stim	9		36	0.55	1.0	79.0	28.0		840.1018778880025	0.6066854119999334
65.0	837.2486366669982	response	9	k		0.55	1.0	79.0	28.0		840.7039859259967	
65.0	837.253214041004	choice	9		240					2.0	840.7085633000024	3.394129291998979
66.0	840.6473433330029	stim	0		15	0.55	1.0	23.0	20.0		844.1026925920014	0.24921273499785457
66.0	840.8965560680008	stim	1		18	0.55	1.0	23.0	20.0		844.3519053269993	0.299921853998967
66.0	841.1964779219998	stim	2		18	0.55	1.0	23.0	20.0		844.6518271809982	0.3001022610042128
66.0	841.496580183004	stim	3		30	0.55	1.0	23.0	20.0		844.9519294420024	0.49998909900023136
66.0	841.9965692820042	stim	4		36	0.55	1.0	23.0	20.0		845.4519185410027	0.5999656849962776
66.0	842.5965349670005	stim	5		300	0.55	1.0	23.0	20.0		846.051884225999	5.000620128004812
66.0	847.5971550950053	stim	6		18	0.55	1.0	23.0	20.0		851.0525043540038	0.29942187699634815
66.0	847.8965769720016	stim	7		18	0.55	1.0	23.0	20.0		851.3519262310001	0.2998475819986197
66.0	848.1964245540003	stim	8		36	0.55	1.0	23.0	20.0		851.6517738129987	0.599907579999126
66.0	848.7963321339994	stim	9		35	0.55	1.0	23.0	20.0		852.2516813929979	0.5898413670001901
66.0	849.3660929850012	response	9	k		0.55	1.0	23.0	20.0		852.8214422439996	
66.0	849.3861735009996	choice	9		240					2.0	852.841522759998	3.4105548930019722
67.0	852.7967283940015	stim	0		15	0.55	1.0	33.0	10.0		856.252077653	0.24930244399729418
67.0	853.0460308379988	stim	1		18	0.55	1.0	33.0	10.0		856.5013800969973	0.30009104200144066
67.0	853.3461218800003	stim	2		18	0.55	1.0	33.0	10.0		856.8014711389987	0.3007123290008167
67.0	853.6468342090011	stim	3		30	0.55	1.0	33.0	10.0		857.1021834679996	0.5005248899979051
67.0	854.147359098999	stim	4		36	0.55	1.0	33.0	10.0		857.6027083579975	0.5988707910000812
67.0	854.7462298899991	stim	5		300	0.55	1.0	33.0	10.0		858.2015791489976	5.0000234590042965
67.0	859.7462533490034	stim	6		18	0.55	1.0	33.0	10.0		863.2016026080018	0.29994613099552225
67.0	860.0461994799989	stim	7		18	0.55	1.0	33.0	10.0		863.5015487389974	0.29998283400345827
67.0	860.3461823140024	stim	8		36	0.55	1.0	33.0	10.0		863.8015315730008	0.5999088929966092
67.0	860.946091206999	stim	9		14	0.55	1.0	33.0	10.0		864.4014404659974	0.24019318600039696
67.0	861.1815731110037	response	9	j		0.55	1.0	33.0	10.0		864.6369223700021	
67.0	861.1862843929994	choice	9		240					1.0	864.6416336519978	3.760566513003141
68.0	864.9468509060025	stim	0		15	0.55	1.0	14.0	7.0		868.402200165001	0.24934205500176176
68.0	865.1961929610043	stim	1		18	0.55	1.0	14.0	7.0		868.6515422200027	0.3007655249966774
68.0	865.496958486001	stim	2		18	0.55	1.0	14.0	7.0		868.9523077449994	0.2993689720024122
68.0	865.7963274580034	stim	3		30	0.55	1.0	14.0	7.0		869.2516767170018	0.49979563299712026
68.0	866.2961230910005	stim	4		36	0.55	1.0	14.0	7.0		869.751472349999	0.6006900540014612
68.0	866.8968131450019	stim	5		300	0.55	1.0	14.0	7.0		870.3521624040004	4.999557725001068
68.0	871.896370870003	stim	6		18	0.55	1.0	14.0	7.0		875.3517201290015	0.30014418700011447
68.0	872.1965150570031	stim	7		18	0.55	1.0	14.0	7.0		875.6518643160016	0.2995309170000837
68.0	872.4960459740032	stim	8		36	0.55	1.0	14.0	7.0		875.9513952330017	0.6002008180003031
68.0	873.0962467920035	stim	9		54	0.55	1.0	14.0	7.0		876.551596051002	0.9068433059946983
68.0	873.9983086110005	response	9	j		0.55	1.0	14.0	7.0		877.453657869999	
68.0	874.0030900979982	choice	9		240					1.0	877.4584393569967	3.093053422002413
69.0	877.0961435200006	stim	0		15	0.55	1.0	56.0	20.0		880.5514927789991	0.2502919250036939
69.0	877.3464354450043	stim	1		18	0.55	1.0	56.0	20.0		880.8017847040028	0.2998317469973699
69.0	877.6462671920017	stim	2		18	0.55	1.0	56.0	20.0		881.1016164510002	0.3004457139977603
69.0	877.9467129059994	stim	3		30	0.55	1.0	56.0	20.0		881.4020621649979	0.5116808060047333
69.0	878.4583937120042	stim	4		24	0.55	1.0	56.0	20.0		881.9137429710026	0.5880087319965241
69.0	879.0464024440007	stim	5		300	0.55	1.0	56.0	20.0		882.5017517029992	4.99966718700307
69.0	884.0460696310038	stim	6		18	0.55	1.0	56.0	20.0		887.5014188900022	0.30023997299576877
69.0	884.3463096039995	stim	7		18	0.55	1.0	56.0	20.0		887.801658862998	0.2993773140042322
69.0	884.6456869180038	stim	8		36	0.55	1.0	56.0	20.0		888.1010361770022	0.6001645079959417
69.0	885.2458514259997	stim	9		40	0.55	1.0	56.0	20.0		888.7012006849982	0.6735540270019555
69.0	885.9147895370043	response	9	k		0.55	1.0	56.0	20.0		889.3701387960027	
69.0	885.9194054530017	choice	9		240					2.0	889.3747547120001	3.3265858869999647
70.0	889.2459913400016	stim	0		15	0.55	1.0	28.0	10.0		892.7013405990001	0.2498244309972506
70.0	889.4958157709989	stim	1		18	0.55	1.0	28.0	10.0		892.9511650299974	0.30000284000561805
70.0	889.7958186110045	stim	2		18	0.55	1.0	28.0	10.0		893.251167870003	0.30056037699978333
70.0	890.0963789880043	stim	3		30	0.55	1.0	28.0	10.0		893.5517282470028	0.5007884849983384
70.0	890.5971674730026	stim	4		36	0.55	1.0	28.0	10.0		894.0525167320011	0.5991689619986573
70.0	891.1963364350013	stim	5		300	0.55	1.0	28.0	10.0		894.6516856939998	4.999773287003336
70.0	896.1961097220046	stim	6		18	0.55	1.0	28.0	10.0		899.6514589810031	0.29999286100064637
70.0	896.4961025830053	stim	7		18	0.55	1.0	28.0	10.0		899.9514518420037	0.29958993699983694
70.0	896.7956925200051	stim	8		36	0.55	1.0	28.0	10.0		900.2510417790036	0.6004354889955721
70.0	897.3961280090007	stim	9		44	0.55	1.0	28.0	10.0		900.8514772679991	0.7404238360031741
70.0	898.1319374560044	response	9	j		0.55	1.0	28.0	10.0		901.5872867150028	
70.0	898.1365518450039	choice	9		240					1.0	901.5919011040023	3.2592624079989037
4.0	901.3958142530028	stim	0		300						904.8511635120012	5.00017294799909
71.0	906.3959872010018	stim	0		15	1.0	0.55	10.0	20.0		909.8513364600003	0.24993088100018213
71.0	906.645918082002	stim	1		18	1.0	0.55	10.0	20.0		910.1012673410005	0.2999406570015708
71.0	906.9458587390036	stim	2		18	1.0	0.55	10.0	20.0		910.4012079980021	0.30021759800001746
71.0	907.2460763370036	stim	3		30	1.0	0.55	10.0	20.0		910.7014255960021	0.4995647089963313
71.0	907.745641046	stim	4		36	1.0	0.55	10.0	20.0		911.2009903049984	0.6004258600005414
71.0	908.3460669060005	stim	5		300	1.0	0.55	10.0	20.0		911.801416164999	4.999723528002505
71.0	913.345790434003	stim	6		18	1.0	0.55	10.0	20.0		916.8011396930015	0.29967264799779514
71.0	913.6454630820008	stim	7		18	1.0	0.55	10.0	20.0		917.1008123409993	0.2998745740042068
71.0	913.945337656005	stim	8		36	1.0	0.55	10.0	20.0		917.4006869150035	0.6006644149965723
71.0	914.5460020710016	stim	9		8	1.0	0.55	10.0	20.0		918.00135133	0.1403037720010616
71.0	914.6814163410017	response	9	k		1.0	0.55	10.0	20.0		918.1367656000002	
71.0	914.6863058430026	choice	9		240					2.0	918.1416551020011	3.8591261499968823
72.0	918.5454319929995	stim	0		15	1.0	0.55	7.0	23.0		922.000781251998	0.2501367350050714
72.0	918.7955687280046	stim	1		18	1.0	0.55	7.0	23.0		922.250917987003	0.2999204179941444
72.0	919.0954891459987	stim	2		18	1.0	0.55	7.0	23.0		922.5508384049972	0.29981330699956743
72.0	919.3953024529983	stim	3		30	1.0	0.55	7.0	23.0		922.8506517119968	0.5000602480067755
72.0	919.8953627010051	stim	4		36	1.0	0.55	7.0	23.0		923.3507119600035	0.600577428995166
72.0	920.4959401300002	stim	5		300	1.0	0.55	7.0	23.0		923.9512893889987	5.000050973001635
72.0	925.4959911030019	stim	6		18	1.0	0.55	7.0	23.0		928.9513403620003	0.2990460599976359
72.0	925.7950371629995	stim	7		18	1.0	0.55	7.0	23.0		929.250386421998	0.30013706300087506
72.0	926.0951742260004	stim	8		36	1.0	0.55	7.0	23.0		929.5505234849988	0.5999175149991061
72.0	926.6950917409995	stim	9		21	1.0	0.55	7.0	23.0		930.150440999998	0.3557640400031232
72.0	927.0467608660038	response	9	k		1.0	0.55	7.0	23.0		930.5021101250022	
72.0	927.0508557810026	choice	9		240					2.0	930.5062050400011	3.6444632670027204
73.0	930.6953190480053	stim	0		15	1.0	0.55	20.0	33.0		934.1506683070038	0.25025885899958666
73.0	930.9455779070049	stim	1		18	1.0	0.55	20.0	33.0		934.4009271660034	0.29979416899732314
73.0	931.2453720760022	stim	2		18	1.0	0.55	20.0	33.0		934.7007213350007	0.2996080160010024
73.0	931.5449800920032	stim	3		30	1.0	0.55	20.0	33.0		935.0003293510017	0.49985197599744424
73.0	932.0448320680007	stim	4		36	1.0	0.55	20.0	33.0		935.5001813269992	0.6007461600020179
73.0	932.6455782280027	stim	5		300	1.0	0.55	20.0	33.0		936.1009274870012	4.999605181001243
73.0	937.645183409004	stim	6		18	1.0	0.55	20.0	33.0		941.1005326680024	0.3000745760000427
73.0	937.945257985004	stim	7		18	1.0	0.55	20.0	33.0		941.4006072440025	0.3026802329986822
73.0	938.2479382180027	stim	8		35	1.0	0.55	20.0	33.0		941.7032874770011	0.5972950709983706
73.0	938.845233289001	stim	9		25	1.0	0.55	20.0	33.0		942.3005825479995	0.4207537570036948
73.0	939.2480536770017	response	9	k		1.0	0.55	20.0	33.0		942.7034029360002	
73.0	939.2659870460047	choice	9		240					2.0	942.7213363050032	3.5794158159988
74.0	942.8454028620035	stim	0		15	1.0	0.55	14.0	39.0		946.300752121002	0.2501116759958677
74.0	943.0955145379994	stim	1		18	1.0	0.55	14.0	39.0		946.5508637969979	0.2998006330017233
74.0	943.3953151710011	stim	2		18	1.0	0.55	14.0	39.0		946.8506644299996	0.30012625900417333
74.0	943.6954414300053	stim	3		30	1.0	0.55	14.0	39.0		947.1507906890038	0.49954164999508066
74.0	944.1949830800004	stim	4		36	1.0	0.55	14.0	39.0		947.6503323389989	0.5998962520025088
74.0	944.7948793320029	stim	5		300	1.0	0.55	14.0	39.0		948.2502285910014	5.000439285002358
74.0	949.7953186170053	stim	6		18	1.0	0.55	14.0	39.0		953.2506678760037	0.2995638369975495
74.0	950.0948824540028	stim	7		18	1.0	0.55	14.0	39.0		953.5502317130013	0.3056907299978775
74.0	950.4005731840007	stim	8		32	1.0	0.55	14.0	39.0		953.8559224429991	0.5946179509992362
74.0	950.9951911349999	stim	9		2	1.0	0.55	14.0	39.0		954.4505403939984	0.04115734199876897
74.0	951.0307769470019	response	9	k		1.0	0.55	14.0	39.0		954.4861262060003	
74.0	951.0363484769987	choice	9		240					2.0	954.4916977359971	3.9587759190035285
75.0	954.9951243960022	stim	0		15	1.0	0.55	20.0	40.0		958.4504736550007	0.24996732299769064
75.0	955.2450917189999	stim	1		18	1.0	0.55	20.0	40.0		958.7004409779984	0.2999109270022018
75.0	955.5450026460021	stim	2		18	1.0	0.55	20.0	40.0		959.0003519050006	0.3000546370021766
75.0	955.8450572830043	stim	3		30	1.0	0.55	20.0	40.0		959.3004065420027	0.4992598319950048
75.0	956.3443171149993	stim	4		36	1.0	0.55	20.0	40.0		959.7996663739978	0.6006464160018368
75.0	956.9449635310011	stim	5		300	1.0	0.55	20.0	40.0		960.4003127899996	4.9997622259979835
75.0	961.9447257569991	stim	6		18	1.0	0.55	20.0	40.0		965.4000750159976	0.30031251100444933
75.0	962.2450382680036	stim	7		18	1.0	0.55	20.0	40.0		965.700387527002	0.30463952499849256
75.0	962.549677793002	stim	8		31	1.0	0.55	20.0	40.0		966.0050270520005	0.5784085749983205
75.0	963.1280863680004	stim	9		29	1.0	0.55	20.0	40.0		966.5834356269988	0.48866709000139963
75.0	963.6127993019982	response	9	k		1.0	0.55	20.0	40.0		967.0681485609966	
75.0	963.6167534580018	choice	9		241					2.0	967.0721027170002	3.528209074996994
76.0	967.1449625329988	stim	0		15	1.0	0.55	28.0	66.0		970.6003117919972	0.24998475900065387
76.0	967.3949472919994	stim	1		18	1.0	0.55	28.0	66.0		970.8502965509979	0.30013637600495713
76.0	967.6950836680044	stim	2		18	1.0	0.55	28.0	66.0		971.1504329270028	0.29988544099614955
76.0	967.9949691090005	stim	3		30	1.0	0.55	28.0	66.0		971.450318367999	0.5001702029985609
76.0	968.4951393119991	stim	4		36	1.0	0.55	28.0	66.0		971.9504885709975	0.5996345820021816
76.0	969.0947738940013	stim	5		300	1.0	0.55	28.0	66.0		972.5501231529997	4.999914234002063
76.0	974.0946881280033	stim	6		18	1.0	0.55	28.0	66.0		977.5500373870018	0.3002995249989908
76.0	974.3949876530023	stim	7		18	1.0	0.55	28.0	66.0		977.8503369120008	0.31357865199970547
76.0	974.708566305002	stim	8		17	1.0	0.55	28.0	66.0		978.1639155640005	0.5827310649983701
76.0	975.2912973700004	stim	9		2	1.0	0.55	28.0	66.0		978.7466466289989	0.03242778000276303
76.0	975.3187365859994	response	9	k		1.0	0.55	28.0	66.0		978.7740858449979	
76.0	975.3237251500032	choice	9		239					2.0	978.7790744090016	3.961636455998814
77.0	979.285361606002	stim	0		14	1.0	0.55	14.0	33.0		982.7407108650004	0.2498821310000494
77.0	979.535243737002	stim	1		18	1.0	0.55	14.0	33.0		982.9905929960005	0.3000104669990833
77.0	979.8352542040011	stim	2		18	1.0	0.55	14.0	33.0		983.2906034629996	0.29995926200354006
77.0	980.1352134660046	stim	3		30	1.0	0.55	14.0	33.0		983.5905627250031	0.502439168994897
77.0	980.6376526349995	stim	4		34	1.0	0.55	14.0	33.0		984.093001893998	0.6038944559986703
77.0	981.2415470909982	stim	5		301	1.0	0.55	14.0	33.0		984.6968963499967	5.002567072006059
77.0	986.2441141630043	stim	6		18	1.0	0.55	14.0	33.0		989.6994634220027	0.3002357299992582
77.0	986.5443498930035	stim	7		18	1.0	0.55	14.0	33.0		989.999699152002	0.30180911700153956
77.0	986.8461590100051	stim	8		36	1.0	0.55	14.0	33.0		990.3015082690035	0.5982313200001954
77.0	987.4443903300053	stim	9		6	1.0	0.55	14.0	33.0		990.8997395890037	0.10669368899834808
77.0	987.5466861660025	response	9	k		1.0	0.55	14.0	33.0		991.0020354250009	
77.0	987.5510840190036	choice	9		236					2.0	991.0064332780021	3.892707925995637
78.0	991.4437919449992	stim	0		15	1.0	0.55	28.0	79.0		994.8991412039977	0.2504055690005771
78.0	991.6941975139998	stim	1		18	1.0	0.55	28.0	79.0		995.1495467729983	0.2999271660009981
78.0	991.9941246800008	stim	2		18	1.0	0.55	28.0	79.0		995.4494739389993	0.3002381929982221
78.0	992.294362872999	stim	3		30	1.0	0.55	28.0	79.0		995.7497121319975	0.49951507500372827
78.0	992.7938779480028	stim	4		34	1.0	0.55	28.0	79.0		996.2492272070012	0.6076690869958838
78.0	993.4015470349987	stim	5		299	1.0	0.55	28.0	79.0		996.8568962939971	4.983466789002705
78.0	998.3850138240014	stim	6		18	1.0	0.55	28.0	79.0		1001.8403630829998	0.3001189959977637
78.0	998.6851328199991	stim	7		19	1.0	0.55	28.0	79.0		1002.1404820789976	0.32796583700110205
78.0	999.0130986570002	stim	8		15	1.0	0.55	28.0	79.0		1002.4684479159987	0.5741142550032237
78.0	999.5872129120035	stim	9		4	1.0	0.55	28.0	79.0		1003.0425621710019	0.14584176700009266
78.0	999.7287050209998	response	9	k		1.0	0.55	28.0	79.0		1003.1840542799982	
78.0	999.7330546790035	choice	9		236					2.0	1003.188403938002	3.852007531997515
79.0	1003.5850622110011	stim	0		15	1.0	0.55	14.0	23.0		1007.0404114699995	0.24978073300007964
79.0	1003.8348429440011	stim	1		18	1.0	0.55	14.0	23.0		1007.2901922029996	0.2999804249993758
79.0	1004.1348233690005	stim	2		18	1.0	0.55	14.0	23.0		1007.590172627999	0.3003736730024684
79.0	1004.435197042003	stim	3		30	1.0	0.55	14.0	23.0		1007.8905463010015	0.5013341390003916
79.0	1004.9365311810034	stim	4		35	1.0	0.55	14.0	23.0		1008.3918804400018	0.6052769189991523
79.0	1005.5418081000025	stim	5		300	1.0	0.55	14.0	23.0		1008.997157359001	5.0020329729959485
79.0	1006.554892496999	response	5	j		1.0	0.55	14.0	23.0		1010.0102417559974	
79.0	1010.5438410729985	stim	6		18	1.0	0.55	14.0	23.0		1013.9991903319969	0.3001243960025022
79.0	1010.843965469001	stim	7		18	1.0	0.55	14.0	23.0		1014.2993147279994	0.2994815589991049
79.0	1011.1434470280001	stim	8		36	1.0	0.55	14.0	23.0		1014.5987962869985	0.6000614689983195
79.0	1011.7435084969984	stim	9		0	1.0	0.55	14.0	23.0		1015.1988577559969	0.008159084005455952
79.0	1011.7475204430011	response	9	k		1.0	0.55	14.0	23.0		1015.2028697019996	
79.0	1011.7516675810039	choice	9		240					2.0	1015.2070168400023	3.992387902995688
80.0	1015.7440554839995	stim	0		15	1.0	0.55	7.0	8.0		1019.199404742998	0.2495575020002434
80.0	1015.9936129859998	stim	1		18	1.0	0.55	7.0	8.0		1019.4489622449983	0.30001744000037434
80.0	1016.2936304260002	stim	2		18	1.0	0.55	7.0	8.0		1019.7489796849986	0.30004151000321144
80.0	1016.5936719360034	stim	3		30	1.0	0.55	7.0	8.0		1020.0490211950018	0.4999831280001672
80.0	1017.0936550640035	stim	4		36	1.0	0.55	7.0	8.0		1020.549004323002	0.6003472929951386
80.0	1017.6940023569987	stim	5		300	1.0	0.55	7.0	8.0		1021.1493516159971	4.9995068320058635
80.0	1022.6935091890045	stim	6		18	1.0	0.55	7.0	8.0		1026.148858448003	0.30040939999889815
80.0	1022.9939185890034	stim	7		18	1.0	0.55	7.0	8.0		1026.449267848002	0.2996591049959534
80.0	1023.2935776939994	stim	8		36	1.0	0.55	7.0	8.0		1026.7489269529979	0.6000064920008299
80.0	1023.8935841860002	stim	9		1	1.0	0.55	7.0	8.0		1027.3489334449987	0.023616268998011947
80.0	1023.9130136259992	response	9	k		1.0	0.55	7.0	8.0		1027.3683628849976	
80.0	1023.9172004549982	choice	9		240					2.0	1027.3725497139967	3.9764196579999407
81.0	1027.8936201129982	stim	0		170						1031.3489693719966	2.8501424430069164
81.0	1028.8132154900013	response	0	k							1032.2685647489998	
