trial_nr	onset	event_type	phase	response	nr_frames	prob1	prob2	n1	n2	choice	onset_abs	duration
1.0	0.016564468998694792	stim	0		6376						3.3358639610087266	106.28158805999556
1.0	106.28344714199193	response	0	space							109.60274663400196	
1.0	106.29815252899425	stim	0		266						109.61745202100428	5.022976891006692
1.0	111.32112942000094	stim	0		15	1.0	0.55	14.0	16.0		114.64042891201098	0.24512703900109045
1.0	111.56625645900203	stim	1		18	1.0	0.55	14.0	16.0		114.88555595101207	0.2996318679943215
1.0	111.86588832699636	stim	2		18	1.0	0.55	14.0	16.0		115.18518781900639	0.3003518059995258
1.0	112.16624013299588	stim	3		30	1.0	0.55	14.0	16.0		115.48553962500591	0.5078726840001764
1.0	112.67411281699606	stim	4		32	1.0	0.55	14.0	16.0		115.99341230900609	0.5921864209958585
1.0	113.26629923799192	stim	5		298	1.0	0.55	14.0	16.0		116.58559873000195	4.999864712997805
1.0	118.26616395098972	stim	6		17	1.0	0.55	14.0	16.0		121.58546344299975	0.30032611500064377
1.0	118.56649006599037	stim	7		18	1.0	0.55	14.0	16.0		121.8857895580004	0.30284518501139246
1.0	118.86933525100176	stim	8		30	1.0	0.55	14.0	16.0		122.18863474301179	0.5801786730007734
1.0	119.44951392400253	stim	9		75	1.0	0.55	14.0	16.0		122.76881341601256	1.2584273029933684
1.0	120.68594945500081	response	9	j		1.0	0.55	14.0	16.0		124.00524894701084	
1.0	120.7079412269959	choice	9		241					1.0	124.02724071900593	2.7585060160054127
2.0	123.46644724300131	stim	0		15	1.0	0.55	10.0	33.0		126.78574673501134	0.24994225898990408
2.0	123.71638950199122	stim	1		17	1.0	0.55	10.0	33.0		127.03568899400125	0.2996675030008191
2.0	124.01605700499204	stim	2		18	1.0	0.55	10.0	33.0		127.33535649700207	0.3003658060042653
2.0	124.3164228109963	stim	3		30	1.0	0.55	10.0	33.0		127.63572230300633	0.5005210569943301
2.0	124.81694386799063	stim	4		35	1.0	0.55	10.0	33.0		128.13624336000066	0.5828336810081964
2.0	125.39977754899883	stim	5		299	1.0	0.55	10.0	33.0		128.71907704100886	5.029897542000981
2.0	130.4296750909998	stim	6		17	1.0	0.55	10.0	33.0		133.74897458300984	0.2862772770022275
2.0	130.71595236800204	stim	7		18	1.0	0.55	10.0	33.0		134.03525186001207	0.309975222000503
2.0	131.02592759000254	stim	8		24	1.0	0.55	10.0	33.0		134.34522708201257	0.5939410829887493
2.0	131.6198686729913	stim	9		40	1.0	0.55	10.0	33.0		134.93916816500132	0.6688705109991133
2.0	132.26876683199953	response	9	k		1.0	0.55	10.0	33.0		135.58806632400956	
2.0	132.2887391839904	choice	9		238					2.0	135.60803867600043	3.310031348009943
3.0	135.59877053200034	stim	0		16	1.0	0.55	10.0	28.0		138.91807002401038	0.2674143039912451
3.0	135.8661848359916	stim	1		17	1.0	0.55	10.0	28.0		139.18548432800162	0.3138173000043025
3.0	136.1800021359959	stim	2		17	1.0	0.55	10.0	28.0		139.49930162800592	0.28618439300043974
3.0	136.46618652899633	stim	3		29	1.0	0.55	10.0	28.0		139.78548602100636	0.5005344009987311
3.0	136.96672092999506	stim	4		35	1.0	0.55	10.0	28.0		140.2860204220051	0.5827120659960201
3.0	137.54943299599108	stim	5		301	1.0	0.55	10.0	28.0		140.86873248800111	5.0301434920111205
3.0	142.5795764880022	stim	6		17	1.0	0.55	10.0	28.0		145.89887598001224	0.2861875289963791
3.0	142.86576401699858	stim	7		18	1.0	0.55	10.0	28.0		146.18506350900861	0.3072951119975187
3.0	143.1730591289961	stim	8		25	1.0	0.55	10.0	28.0		146.49235862100613	0.5802772949973587
3.0	143.75333642399346	stim	9		40	1.0	0.55	10.0	28.0		147.0726359160035	0.6899303079990204
3.0	144.43898913900193	response	9	k		1.0	0.55	10.0	28.0		147.75828863101196	
3.0	144.44326673199248	choice	9		240					2.0	147.7625662240025	3.322742547999951
4.0	147.76600927999243	stim	0		14	1.0	0.55	14.0	19.0		151.08530877200246	0.25007533399912063
4.0	148.01608461399155	stim	1		18	1.0	0.55	14.0	19.0		151.33538410600158	0.2995894670020789
4.0	148.31567408099363	stim	2		18	1.0	0.55	14.0	19.0		151.63497357300366	0.3003325260069687
4.0	148.6160066070006	stim	3		30	1.0	0.55	14.0	19.0		151.93530609901063	0.5022124029928818
4.0	149.11821900999348	stim	4		32	1.0	0.55	14.0	19.0		152.4375185020035	0.5849656799982768
4.0	149.70318468999176	stim	5		301	1.0	0.55	14.0	19.0		153.0224841820018	5.012414854005328
4.0	154.7155995439971	stim	6		17	1.0	0.55	14.0	19.0		158.03489903600712	0.3004507979931077
4.0	155.0160503419902	stim	7		18	1.0	0.55	14.0	19.0		158.33534983400023	0.3041975870000897
4.0	155.32024792899028	stim	8		30	1.0	0.55	14.0	19.0		158.63954742100032	0.5956408640049631
4.0	155.91588879299525	stim	9		53	1.0	0.55	14.0	19.0		159.23518828500528	0.8904945899994345
4.0	156.80146978599078	response	9	j		1.0	0.55	14.0	19.0		160.1207692780008	
4.0	156.80638338299468	choice	9		240					1.0	160.1256828750047	3.1094388530036667
5.0	159.91582223599835	stim	0		15	1.0	0.55	20.0	47.0		163.23512172800838	0.24996782100060955
5.0	160.16579005699896	stim	1		18	1.0	0.55	20.0	47.0		163.485089549009	0.29968599099083804
5.0	160.4654760479898	stim	2		18	1.0	0.55	20.0	47.0		163.78477553999983	0.30026527801237535
5.0	160.76574132600217	stim	3		30	1.0	0.55	20.0	47.0		164.0850408180122	0.504634068987798
5.0	161.27037539498997	stim	4		29	1.0	0.55	20.0	47.0		164.589674887	0.5955869110039202
5.0	161.8659623059939	stim	5		299	1.0	0.55	20.0	47.0		165.18526179800392	5.013366904007853
5.0	166.87932921000174	stim	6		16	1.0	0.55	20.0	47.0		170.19862870201177	0.2863427080010297
5.0	167.16567191800277	stim	7		17	1.0	0.55	20.0	47.0		170.4849714100128	0.3153431179962354
5.0	167.481015035999	stim	8		20	1.0	0.55	20.0	47.0		170.80031452800904	0.5848384639975848
5.0	168.0658534999966	stim	9		97	1.0	0.55	20.0	47.0		171.38515299200662	1.6227223799942294
5.0	169.68410695699276	response	9	k		1.0	0.55	20.0	47.0		173.0034064490028	
5.0	169.68857587999082	choice	9		240					2.0	173.00787537200085	2.3768559580057627
6.0	172.06543183799658	stim	0		15	1.0	0.55	7.0	8.0		175.38473133000662	0.2501988320000237
6.0	172.3156306699966	stim	1		18	1.0	0.55	7.0	8.0		175.63493016200664	0.3135903039947152
6.0	172.62922097399132	stim	2		17	1.0	0.55	7.0	8.0		175.94852046600136	0.2863547380111413
6.0	172.91557571200246	stim	3		30	1.0	0.55	7.0	8.0		176.2348752040125	0.4996639699966181
6.0	173.41523968199908	stim	4		36	1.0	0.55	7.0	8.0		176.73453917400911	0.6002076320000924
6.0	174.01544731399918	stim	5		298	1.0	0.55	7.0	8.0		177.3347468060092	4.999713561992394
6.0	179.01516087599157	stim	6		17	1.0	0.55	7.0	8.0		182.3344603680016	0.30032812801073305
6.0	179.3154890040023	stim	7		18	1.0	0.55	7.0	8.0		182.63478849601233	0.2971532879892038
6.0	179.6126422919915	stim	8		35	1.0	0.55	7.0	8.0		182.93194178400154	0.6028766450035619
6.0	180.21551893699507	stim	9		32	1.0	0.55	7.0	8.0		183.5348184290051	0.5571554220077815
6.0	180.76771517199813	response	9	j		1.0	0.55	7.0	8.0		184.08701466400817	
6.0	180.77267435900285	choice	9		239					1.0	184.09197385101288	3.442701252992265
7.0	184.2153756119951	stim	0		14	1.0	0.55	10.0	14.0		187.53467510400515	0.24999553700035904
7.0	184.46537114899547	stim	1		18	1.0	0.55	10.0	14.0		187.7846706410055	0.29971888499858323
7.0	184.76509003399406	stim	2		18	1.0	0.55	10.0	14.0		188.0843895260041	0.3003125249961158
7.0	185.06540255899017	stim	3		29	1.0	0.55	10.0	14.0		188.3847020510002	0.5005952760111541
7.0	185.56599783500133	stim	4		35	1.0	0.55	10.0	14.0		188.88529732701136	0.5990381809970131
7.0	186.16503601599834	stim	5		300	1.0	0.55	10.0	14.0		189.48433550800837	5.0138541310006985
7.0	191.17889014699904	stim	6		17	1.0	0.55	10.0	14.0		194.49818963900907	0.2865942130010808
7.0	191.46548436000012	stim	7		18	1.0	0.55	10.0	14.0		194.78478385201015	0.30138892099785153
7.0	191.76687328099797	stim	8		32	1.0	0.55	10.0	14.0		195.086172773008	0.5819641050038626
7.0	192.34883738600183	stim	9		100	1.0	0.55	10.0	14.0		195.66813687801186	1.6728121989872307
7.0	194.0172311339993	response	9	j		1.0	0.55	10.0	14.0		197.33653062600933	
7.0	194.02164958498906	choice	9		241					1.0	197.3409490769991	2.3354034570074873
8.0	196.35705304199655	stim	0		15	1.0	0.55	28.0	39.0		199.67635253400658	0.2508243640040746
8.0	196.60787740600063	stim	1		18	1.0	0.55	28.0	39.0		199.92717689801066	0.2999475629912922
8.0	196.90782496899192	stim	2		18	1.0	0.55	28.0	39.0		200.22712446100195	0.2999365950090578
8.0	197.20776156400098	stim	3		30	1.0	0.55	28.0	39.0		200.527061056011	0.5001722500019241
8.0	197.7079338140029	stim	4		29	1.0	0.55	28.0	39.0		201.02723330601293	0.5966927809931803
8.0	198.30462659499608	stim	5		300	1.0	0.55	28.0	39.0		201.6239260870061	5.009948406994226
8.0	203.3145750019903	stim	6		18	1.0	0.55	28.0	39.0		206.63387449400034	0.2999963340116665
8.0	203.61457133600197	stim	7		18	1.0	0.55	28.0	39.0		206.933870828012	0.31305775699729566
8.0	203.92762909299927	stim	8		22	1.0	0.55	28.0	39.0		207.2469285850093	0.573204332991736
8.0	204.500833425991	stim	9		96	1.0	0.55	28.0	39.0		207.82013291800104	1.6037065249984153
8.0	206.10018242998922	response	9	j		1.0	0.55	28.0	39.0		209.41948192199925	
8.0	206.10453995098942	choice	9		241					1.0	209.42383944299945	2.410121014007018
9.0	208.51466096499644	stim	0		15	1.0	0.55	28.0	79.0		211.83396045700647	0.25002581799344625
9.0	208.76468678298988	stim	1		18	1.0	0.55	28.0	79.0		212.08398627499992	0.2998568930051988
9.0	209.06454367599508	stim	2		18	1.0	0.55	28.0	79.0		212.38384316800511	0.30025905699585564
9.0	209.36480273299094	stim	3		30	1.0	0.55	28.0	79.0		212.68410222500097	0.508479433003231
9.0	209.87328216599417	stim	4		25	1.0	0.55	28.0	79.0		213.1925816580042	0.5777491740009282
9.0	210.4510313399951	stim	5		300	1.0	0.55	28.0	79.0		213.77033083200513	5.013560481995228
9.0	215.46459182199033	stim	6		17	1.0	0.55	28.0	79.0		218.78389131400036	0.3001357830071356
9.0	215.76472760499746	stim	7		18	1.0	0.55	28.0	79.0		219.0840270970075	0.32617959499475546
9.0	216.09090719999222	stim	8		15	1.0	0.55	28.0	79.0		219.41020669200225	0.5909256919985637
9.0	216.68183289199078	stim	9		121	1.0	0.55	28.0	79.0		220.0011323840008	2.022782124011428
9.0	218.70010102599917	response	9	j		1.0	0.55	28.0	79.0		222.0194005180092	
9.0	218.7046150160022	choice	9		239					1.0	222.02391450801224	1.9601676390011562
10.0	220.66478265500336	stim	0		14	1.0	0.55	28.0	56.0		223.9840821470134	0.25003290199674666
10.0	220.9148155570001	stim	1		17	1.0	0.55	28.0	56.0		224.23411504901014	0.2995798579941038
10.0	221.21439541499421	stim	2		18	1.0	0.55	28.0	56.0		224.53369490700425	0.3004392239963636
10.0	221.51483463899058	stim	3		29	1.0	0.55	28.0	56.0		224.8341341310006	0.5082593070110306
10.0	222.0230939460016	stim	4		25	1.0	0.55	28.0	56.0		225.34239343801164	0.5760330099874409
10.0	222.59912695598905	stim	5		300	1.0	0.55	28.0	56.0		225.91842644799908	5.01527972301119
10.0	227.61440667900024	stim	6		17	1.0	0.55	28.0	56.0		230.93370617101027	0.3001218479912495
10.0	227.9145285269915	stim	7		17	1.0	0.55	28.0	56.0		231.23382801900152	0.31928605400025845
10.0	228.23381458099175	stim	8		18	1.0	0.55	28.0	56.0		231.55311407300178	0.5806649770092918
10.0	228.81447955800104	stim	9		45	1.0	0.55	28.0	56.0		232.13377905001107	0.7555186949903145
10.0	229.55068870499963	response	9	j		1.0	0.55	28.0	56.0		232.86998819700966	
10.0	229.56999825299135	choice	9		240					1.0	232.8892977450014	3.244607120010187
1.0	232.81460537300154	stim	0		275						236.13390486501157	4.980522280995501
1.0	237.77162768300332	response	0	space							241.09092717501335	
11.0	237.79512765399704	stim	0		15	0.55	1.0	8.0	7.0		241.11442714600707	0.2689151840022532
11.0	238.0640428379993	stim	1		18	0.55	1.0	8.0	7.0		241.38334233000933	0.2999607389938319
11.0	238.36400357699313	stim	2		18	0.55	1.0	8.0	7.0		241.68330306900316	0.3001498300000094
11.0	238.66415340699314	stim	3		30	0.55	1.0	8.0	7.0		241.98345289900317	0.5001768369984347
11.0	239.16433024399157	stim	4		36	0.55	1.0	8.0	7.0		242.4836297360016	0.6000294359982945
11.0	239.76435967998987	stim	5		300	0.55	1.0	8.0	7.0		243.0836591719999	4.999748801012174
11.0	244.76410848100204	stim	6		18	0.55	1.0	8.0	7.0		248.08340797301207	0.3002854319929611
11.0	245.064393912995	stim	7		17	0.55	1.0	8.0	7.0		248.38369340500503	0.29987968399655074
11.0	245.36427359699155	stim	8		36	0.55	1.0	8.0	7.0		248.68357308900158	0.5999847589991987
11.0	245.96425835599075	stim	9		34	0.55	1.0	8.0	7.0		249.28355784800078	0.5886557170015294
11.0	246.5486126129981	response	9	k		0.55	1.0	8.0	7.0		249.86791210500814	
11.0	246.55291407299228	choice	9		238					2.0	249.8722135650023	3.411471551997238
12.0	249.96438562498952	stim	0		15	0.55	1.0	56.0	20.0		253.28368511699955	0.2499376900086645
12.0	250.21432331499818	stim	1		17	0.55	1.0	56.0	20.0		253.53362280700821	0.3136644259939203
12.0	250.5279877409921	stim	2		17	0.55	1.0	56.0	20.0		253.84728723300213	0.2862066480010981
12.0	250.8141943889932	stim	3		30	0.55	1.0	56.0	20.0		254.13349388100323	0.517970642002183
12.0	251.33216503099538	stim	4		18	0.55	1.0	56.0	20.0		254.65146452300542	0.5819546239945339
12.0	251.91411965498992	stim	5		298	0.55	1.0	56.0	20.0		255.23341914699995	5.013871917006327
12.0	256.92799157199624	stim	6		16	0.55	1.0	56.0	20.0		260.2472910640063	0.28618202899815515
12.0	257.2141736009944	stim	7		18	0.55	1.0	56.0	20.0		260.53347309300443	0.30467926200071815
12.0	257.5188528629951	stim	8		29	0.55	1.0	56.0	20.0		260.83815235500515	0.5856269299983978
12.0	258.1044797929935	stim	9		55	0.55	1.0	56.0	20.0		261.42377928500355	0.9171947249997174
12.0	259.0166705829906	response	9	j		0.55	1.0	56.0	20.0		262.33597007500066	
12.0	259.02167451799323	choice	9		241					1.0	262.34097401000326	3.0925334680068772
13.0	262.1142079860001	stim	0		14	0.55	1.0	80.0	20.0		265.43350747801014	0.2498358110024128
13.0	262.3640437970025	stim	1		18	0.55	1.0	80.0	20.0		265.68334328901256	0.29978801899414975
13.0	262.6638318159967	stim	2		18	0.55	1.0	80.0	20.0		265.9831313080067	0.30032593199575786
13.0	262.96415774799243	stim	3		30	0.55	1.0	80.0	20.0		266.28345724000246	0.5264805519982474
13.0	263.4906382999907	stim	4		15	0.55	1.0	80.0	20.0		266.8099377920007	0.5937608600070234
13.0	264.0843991599977	stim	5		298	0.55	1.0	80.0	20.0		267.40369865200773	4.979273855002248
13.0	269.06367301499995	stim	6		17	0.55	1.0	80.0	20.0		272.38297250701	0.30004541399830487
13.0	269.36371842899825	stim	7		18	0.55	1.0	80.0	20.0		272.6830179210083	0.3047638610005379
13.0	269.6684822899988	stim	8		29	0.55	1.0	80.0	20.0		272.9877817820088	0.5954828109970549
13.0	270.26396510099585	stim	9		2	0.55	1.0	80.0	20.0		273.5832645930059	0.05757644900586456
13.0	270.31672279899067	response	9	j		0.55	1.0	80.0	20.0		273.6360222910007	
13.0	270.3215415500017	choice	9		239					1.0	273.64084104201174	3.9423819160001585
14.0	274.26392346600187	stim	0		14	0.55	1.0	28.0	14.0		277.5832229580119	0.24998680999851786
14.0	274.5139102760004	stim	1		18	0.55	1.0	28.0	14.0		277.8332097680104	0.3138369039952522
14.0	274.82774717999564	stim	2		17	0.55	1.0	28.0	14.0		278.1470466720057	0.2861230419948697
14.0	275.1138702219905	stim	3		30	0.55	1.0	28.0	14.0		278.43316971400054	0.5087320020102197
14.0	275.62260222400073	stim	4		25	0.55	1.0	28.0	14.0		278.94190171601076	0.57736161199864
14.0	276.19996383599937	stim	5		299	0.55	1.0	28.0	14.0		279.5192633280094	5.013574957003584
14.0	277.2331789299933	response	5	j		0.55	1.0	28.0	14.0		280.55247842200333	
14.0	278.21644418800133	response	5	j		0.55	1.0	28.0	14.0		281.53574368001136	
14.0	281.21353879300295	stim	6		18	0.55	1.0	28.0	14.0		284.532838285013	0.3002960829908261
14.0	281.5138348759938	stim	7		18	0.55	1.0	28.0	14.0		284.8331343680038	0.3022347560035996
14.0	281.8160696319974	stim	8		32	0.55	1.0	28.0	14.0		285.1353691240074	0.5863542540027993
14.0	282.4024238860002	stim	9		88	0.55	1.0	28.0	14.0		285.7217233780102	1.466959687997587
14.0	283.8498234430008	response	9	j		0.55	1.0	28.0	14.0		287.1691229350108	
14.0	283.86938357399777	choice	9		239					1.0	287.1886830660078	2.5442184429994086
15.0	286.4136020169972	stim	0		14	0.55	1.0	33.0	14.0		289.7329015090072	0.25015296699712053
15.0	286.6637549839943	stim	1		17	0.55	1.0	33.0	14.0		289.9830544760043	0.299728601006791
15.0	286.9634835850011	stim	2		18	0.55	1.0	33.0	14.0		290.2827830770111	0.30027701798826456
15.0	287.26376060298935	stim	3		30	0.55	1.0	33.0	14.0		290.5830600949994	0.5102110320003703
15.0	287.7739716349897	stim	4		24	0.55	1.0	33.0	14.0		291.09327112699975	0.5899108250014251
15.0	288.36388245999115	stim	5		300	0.55	1.0	33.0	14.0		291.6831819520012	5.013538295010221
15.0	293.37742075500137	stim	6		17	0.55	1.0	33.0	14.0		296.6967202470114	0.2862131479923846
15.0	293.66363390299375	stim	7		18	0.55	1.0	33.0	14.0		296.9829333950038	0.3023006190051092
15.0	293.96593452199886	stim	8		32	0.55	1.0	33.0	14.0		297.2852340140089	0.5851317289925646
15.0	294.5510662509914	stim	9		52	0.55	1.0	33.0	14.0		297.87036574300146	0.8700376480119303
15.0	295.41611100299633	response	9	j		0.55	1.0	33.0	14.0		298.73541049500636	
15.0	295.42110389900336	choice	9		240					1.0	298.7404033910134	3.1424879629921634
16.0	298.5635918619955	stim	0		14	0.55	1.0	19.0	7.0		301.88289135400555	0.2499251440021908
16.0	298.8135170059977	stim	1		18	0.55	1.0	19.0	7.0		302.13281649800774	0.29973185899143573
16.0	299.11324886498915	stim	2		18	0.55	1.0	19.0	7.0		302.4325483569992	0.2998926960135577
16.0	299.4131415610027	stim	3		30	0.55	1.0	19.0	7.0		302.73244105301274	0.504525914991973
16.0	299.9176674759947	stim	4		29	0.55	1.0	19.0	7.0		303.2369669680047	0.5801615249947645
16.0	300.49782900098944	stim	5		301	0.55	1.0	19.0	7.0		303.8171284929995	5.0153577430028236
16.0	305.51318674399226	stim	6		18	0.55	1.0	19.0	7.0		308.8324862360023	0.3002121309982613
16.0	305.8133988749905	stim	7		18	0.55	1.0	19.0	7.0		309.13269836700056	0.2998679130105302
16.0	306.11326678800106	stim	8		36	0.55	1.0	19.0	7.0		309.4325662800111	0.6001458109967643
16.0	306.7134125989978	stim	9		32	0.55	1.0	19.0	7.0		310.03271209100785	0.5556632789957803
16.0	307.249338722002	response	9	j		0.55	1.0	19.0	7.0		310.568638214012	
16.0	307.2690758779936	choice	9		239					1.0	310.58837537000363	3.4443238570092944
17.0	310.7133997350029	stim	0		15	0.55	1.0	14.0	10.0		314.0326992270129	0.2500070449896157
17.0	310.9634067799925	stim	1		18	0.55	1.0	14.0	10.0		314.28270627200254	0.3135568130091997
17.0	311.2769635930017	stim	2		17	0.55	1.0	14.0	10.0		314.59626308501174	0.2863748199888505
17.0	311.56333841299056	stim	3		30	0.55	1.0	14.0	10.0		314.8826379050006	0.5020788660040125
17.0	312.0654172789946	stim	4		32	0.55	1.0	14.0	10.0		315.3847167710046	0.5852423690084834
17.0	312.65065964800306	stim	5		300	0.55	1.0	14.0	10.0		315.9699591400131	5.012312259990722
17.0	317.6629719079938	stim	6		17	0.55	1.0	14.0	10.0		320.9822714000038	0.297921032004524
17.0	317.9608929399983	stim	7		18	0.55	1.0	14.0	10.0		321.28019243200833	0.3028863069921499
17.0	318.26377924699045	stim	8		36	0.55	1.0	14.0	10.0		321.5830787390005	0.5995894780062372
17.0	318.8633687249967	stim	9		22	0.55	1.0	14.0	10.0		322.1826682170067	0.37297521000436973
17.0	319.23170690299594	response	9	k		0.55	1.0	14.0	10.0		322.55100639500597	
17.0	319.23634393500106	choice	9		240					2.0	322.5556434270111	3.62652905700088
18.0	322.86287299200194	stim	0		15	0.55	1.0	28.0	10.0		326.18217248401197	0.25014275599096436
18.0	323.1130157479929	stim	1		18	0.55	1.0	28.0	10.0		326.43231524000294	0.2997114820027491
18.0	323.41272722999565	stim	2		18	0.55	1.0	28.0	10.0		326.7320267220057	0.30030526100017596
18.0	323.71303249099583	stim	3		30	0.55	1.0	28.0	10.0		327.03233198300586	0.5075965739961248
18.0	324.22062906499195	stim	4		25	0.55	1.0	28.0	10.0		327.539928557002	0.5786693460104289
18.0	324.7992984110024	stim	5		299	0.55	1.0	28.0	10.0		328.1185979030124	5.013461333990563
18.0	329.81275974499295	stim	6		17	0.55	1.0	28.0	10.0		333.132059237003	0.30029297700093593
18.0	330.1130527219939	stim	7		18	0.55	1.0	28.0	10.0		333.4323522140039	0.3004854089958826
18.0	330.41353813098976	stim	8		36	0.55	1.0	28.0	10.0		333.7328376229998	0.5991355530131841
18.0	331.01267368400295	stim	9		18	0.55	1.0	28.0	10.0		334.331973176013	0.30665861499437597
18.0	331.3147077409958	response	9	j		0.55	1.0	28.0	10.0		334.63400723300583	
18.0	331.3193322989973	choice	9		239					1.0	334.63863179100736	3.6936465979961213
19.0	335.01297889699345	stim	0		14	0.55	1.0	33.0	20.0		338.3322783890035	0.24998661900463048
19.0	335.2629655159981	stim	1		17	0.55	1.0	33.0	20.0		338.5822650080081	0.313586453004973
19.0	335.57655196900305	stim	2		17	0.55	1.0	33.0	20.0		338.8958514610131	0.2861550300003728
19.0	335.8627069990034	stim	3		30	0.55	1.0	33.0	20.0		339.18200649101345	0.5100485229922924
19.0	336.3727555219957	stim	4		24	0.55	1.0	33.0	20.0		339.69205501400575	0.5898010020027868
19.0	336.9625565239985	stim	5		300	0.55	1.0	33.0	20.0		340.28185601600853	5.000090984001872
19.0	341.9626475080004	stim	6		18	0.55	1.0	33.0	20.0		345.2819470000104	0.3001660789886955
19.0	342.26281358698907	stim	7		17	0.55	1.0	33.0	20.0		345.5821130789991	0.3044381310028257
19.0	342.5672517179919	stim	8		29	0.55	1.0	33.0	20.0		345.8865512100019	0.5954932970053051
19.0	343.1627450149972	stim	9		21	0.55	1.0	33.0	20.0		346.48204450700723	0.3907751439983258
19.0	343.54862474199035	response	9	k		0.55	1.0	33.0	20.0		346.8679242340004	
19.0	343.5535201589955	choice	9		238					2.0	346.87281965100556	3.6092991909972625
20.0	347.1628193499928	stim	0		14	0.55	1.0	33.0	28.0		350.4821188420028	0.24929471100040246
20.0	347.4121140609932	stim	1		18	0.55	1.0	33.0	28.0		350.7314135530032	0.300348735996522
20.0	347.7124627969897	stim	2		18	0.55	1.0	33.0	28.0		351.03176228899974	0.3001115790102631
20.0	348.012574376	stim	3		30	0.55	1.0	33.0	28.0		351.33187386801	0.5102270039933501
20.0	348.5228013799933	stim	4		24	0.55	1.0	33.0	28.0		351.84210087200336	0.5897446190065239
20.0	349.11254599899985	stim	5		299	0.55	1.0	33.0	28.0		352.4318454910099	4.999825324994163
20.0	354.112371323994	stim	6		17	0.55	1.0	33.0	28.0		357.43167081600404	0.3002822400012519
20.0	354.41265356399526	stim	7		17	0.55	1.0	33.0	28.0		357.7319530560053	0.30806066100194585
20.0	354.7207142249972	stim	8		25	0.55	1.0	33.0	28.0		358.04001371700724	0.5773893720033811
20.0	355.2981035970006	stim	9		44	0.55	1.0	33.0	28.0		358.6174030890106	0.7387067879899405
20.0	356.03189833399665	response	9	k		0.55	1.0	33.0	28.0		359.3511978260067	
20.0	356.03681038499053	choice	9		241					2.0	359.35610987700056	3.2758219490060583
2.0	359.3126323339966	stim	0		1565						362.6319318260066	26.099318640001
2.0	385.3816981049895	response	0	j							388.7009975969995	
2.0	385.4119509739976	stim	0		291						388.7312504660076	5.016782603997854
21.0	390.42873357799544	stim	0		15	0.55	1.0	47.0	20.0		393.7480330700055	0.24982074400759302
21.0	390.67855432200304	stim	1		18	0.55	1.0	47.0	20.0		393.99785381401307	0.2998471809987677
21.0	390.9784015030018	stim	2		18	0.55	1.0	47.0	20.0		394.29770099501184	0.30034594298922457
21.0	391.27874744599103	stim	3		30	0.55	1.0	47.0	20.0		394.59804693800106	0.516683866007952
21.0	391.795431311999	stim	4		20	0.55	1.0	47.0	20.0		395.114730804009	0.5833989219972864
21.0	392.37883023399627	stim	5		299	0.55	1.0	47.0	20.0		395.6981297260063	5.013645936996909
21.0	397.3924761709932	stim	6		17	0.55	1.0	47.0	20.0		400.7117756630032	0.2860234420077177
21.0	397.6784996130009	stim	7		18	0.55	1.0	47.0	20.0		400.9977991050109	0.30471467999450397
21.0	397.9832142929954	stim	8		29	0.55	1.0	47.0	20.0		401.30251378500543	0.5956087689992273
21.0	398.5788230619946	stim	9		51	0.55	1.0	47.0	20.0		401.89812255400466	0.8691708050027955
21.0	399.4148340559914	response	9	j		0.55	1.0	47.0	20.0		402.7341335480014	
21.0	399.4479938669974	choice	9		239					1.0	402.76729335900745	3.1303725729958387
22.0	402.57836643999326	stim	0		15	0.55	1.0	16.0	7.0		405.8976659320033	0.25012635299935937
22.0	402.8284927929926	stim	1		18	0.55	1.0	16.0	7.0		406.14779228500265	0.29954845800239127
22.0	403.128041250995	stim	2		18	0.55	1.0	16.0	7.0		406.44734074300504	0.30055516099673696
22.0	403.42859641199175	stim	3		30	0.55	1.0	16.0	7.0		406.7478959040018	0.5033177260047523
22.0	403.9319141379965	stim	4		31	0.55	1.0	16.0	7.0		407.25121363000653	0.5839759490045253
22.0	404.515890087001	stim	5		300	0.55	1.0	16.0	7.0		407.83518957901106	5.0121233699901495
22.0	409.5280134569912	stim	6		17	0.55	1.0	16.0	7.0		412.8473129490012	0.3000867890077643
22.0	409.82810024599894	stim	7		18	0.55	1.0	16.0	7.0		413.14739973800897	0.30004016899329145
22.0	410.12814041499223	stim	8		36	0.55	1.0	16.0	7.0		413.44743990700226	0.599953593002283
22.0	410.7280940079945	stim	9		88	0.55	1.0	16.0	7.0		414.04739350000455	1.4742382929980522
22.0	412.19737613300094	response	9	k		0.55	1.0	16.0	7.0		415.516675625011	
22.0	412.20233230099257	choice	9		240					2.0	415.5216317930026	2.526017605996458
23.0	414.728349906989	stim	0		15	0.55	1.0	23.0	10.0		418.04764939899906	0.2500336940138368
23.0	414.97838360100286	stim	1		18	0.55	1.0	23.0	10.0		418.2976830930129	0.3137561929906951
23.0	415.29213979399356	stim	2		17	0.55	1.0	23.0	10.0		418.6114392860036	0.28600694600027055
23.0	415.5781467399938	stim	3		30	0.55	1.0	23.0	10.0		418.89744623200386	0.5060101290000603
23.0	416.0841568689939	stim	4		27	0.55	1.0	23.0	10.0		419.4034563610039	0.5787251290021231
23.0	416.662881997996	stim	5		301	0.55	1.0	23.0	10.0		419.98218149000604	5.007408696998027
23.0	421.67029069499404	stim	6		18	0.55	1.0	23.0	10.0		424.98959018700407	0.3002120449964423
23.0	421.9705027399905	stim	7		18	0.55	1.0	23.0	10.0		425.2898022320005	0.2994746610056609
23.0	422.26997740099614	stim	8		36	0.55	1.0	23.0	10.0		425.5892768930062	0.6005546660016989
23.0	422.87053206699784	stim	9		86	0.55	1.0	23.0	10.0		426.18983155900787	1.4392565089947311
23.0	424.30562418299087	response	9	j		0.55	1.0	23.0	10.0		427.6249236750009	
23.0	424.30978857599257	choice	9		240					1.0	427.6290880680026	2.561012562000542
24.0	426.8708011379931	stim	0		15	0.55	1.0	39.0	14.0		430.19010063000314	0.25001708400668576
24.0	427.1208182219998	stim	1		18	0.55	1.0	39.0	14.0		430.44011771400983	0.2999101379973581
24.0	427.42072835999716	stim	2		18	0.55	1.0	39.0	14.0		430.7400278520072	0.30004253100196365
24.0	427.7207708909991	stim	3		30	0.55	1.0	39.0	14.0		431.04007038300915	0.5053813659906154
24.0	428.22615225698974	stim	4		32	0.55	1.0	39.0	14.0		431.54545174899977	0.5943058310076594
24.0	428.8204580879974	stim	5		300	0.55	1.0	39.0	14.0		432.1397575800074	5.000181112001883
24.0	433.8206391999993	stim	6		18	0.55	1.0	39.0	14.0		437.1399386920093	0.2998818469932303
24.0	434.1205210469925	stim	7		18	0.55	1.0	39.0	14.0		437.43982053900254	0.2992357280018041
24.0	434.4197567749943	stim	8		36	0.55	1.0	39.0	14.0		437.73905626700434	0.5999137120088562
24.0	435.01967048700317	stim	9		25	0.55	1.0	39.0	14.0		438.3389699790132	0.42394693799724337
24.0	435.43896278899047	response	9	j		0.55	1.0	39.0	14.0		438.7582622810005	
24.0	435.4436174250004	choice	9		240					1.0	438.76291691701044	3.5766625679971185
25.0	439.02027999299753	stim	0		15	0.55	1.0	28.0	7.0		442.33957948500756	0.24979312399227638
25.0	439.2700731169898	stim	1		18	0.55	1.0	28.0	7.0		442.58937260899984	0.30037788600020576
25.0	439.57045100299	stim	2		18	0.55	1.0	28.0	7.0		442.88975049500004	0.3000889640097739
25.0	439.8705399669998	stim	3		30	0.55	1.0	28.0	7.0		443.1898394590098	0.5019731270003831
25.0	440.37251309400017	stim	4		29	0.55	1.0	28.0	7.0		443.6918125860102	0.607240115001332
25.0	440.9797532090015	stim	5		300	0.55	1.0	28.0	7.0		444.29905270101153	5.011593704999541
25.0	445.99134691400104	stim	6		17	0.55	1.0	28.0	7.0		449.3106464060111	0.28633604099741206
25.0	446.27768295499845	stim	7		18	0.55	1.0	28.0	7.0		449.5969824470085	0.29997289000311866
25.0	446.5776558450016	stim	8		36	0.55	1.0	28.0	7.0		449.8969553370116	0.600143562987796
25.0	447.17779940798937	stim	9		27	0.55	1.0	28.0	7.0		450.4970988999994	0.45776178101368714
25.0	447.63038646899804	response	9	j		0.55	1.0	28.0	7.0		450.9496859610081	
25.0	447.63556118900306	choice	9		239					1.0	450.9548606810131	3.542218729999149
26.0	451.1777799190022	stim	0		14	0.55	1.0	23.0	14.0		454.49707941101224	0.24931635298707988
26.0	451.4270962719893	stim	1		18	0.55	1.0	23.0	14.0		454.7463957639993	0.30015894200187176
26.0	451.72725521399116	stim	2		18	0.55	1.0	23.0	14.0		455.0465547060012	0.3004911140014883
26.0	452.02774632799265	stim	3		30	0.55	1.0	23.0	14.0		455.3470458200027	0.5061126810032874
26.0	452.53385900899593	stim	4		28	0.55	1.0	23.0	14.0		455.85315850100596	0.596378204994835
26.0	453.13023721399077	stim	5		300	0.55	1.0	23.0	14.0		456.4495367060008	4.996911799011286
26.0	458.12714901300205	stim	6		17	0.55	1.0	23.0	14.0		461.4464485050121	0.3002505350013962
26.0	458.42739954800345	stim	7		18	0.55	1.0	23.0	14.0		461.7466990400135	0.301702431999729
26.0	458.7291019800032	stim	8		32	0.55	1.0	23.0	14.0		462.0484014720132	0.5822715319955023
26.0	459.3113735119987	stim	9		64	0.55	1.0	23.0	14.0		462.6306730040087	1.0732987160008634
26.0	460.3796827240003	response	9	k		0.55	1.0	23.0	14.0		463.69898221601034	
26.0	460.38467222799954	choice	9		241					2.0	463.7039717200096	2.942822247990989
27.0	463.32749447599053	stim	0		15	0.55	1.0	47.0	28.0		466.64679396800057	0.2500753700005589
27.0	463.5775698459911	stim	1		17	0.55	1.0	47.0	28.0		466.8968693380011	0.2996677320043091
27.0	463.8772375779954	stim	2		18	0.55	1.0	47.0	28.0		467.19653707000543	0.30031925899675116
27.0	464.17755683699215	stim	3		29	0.55	1.0	47.0	28.0		467.4968563290022	0.5147207080008229
27.0	464.692277544993	stim	4		20	0.55	1.0	47.0	28.0		468.011577037003	0.5850719020090764
27.0	465.27734944700205	stim	5		299	0.55	1.0	47.0	28.0		468.5966489390121	4.99954956700094
27.0	470.276899014003	stim	6		17	0.55	1.0	47.0	28.0		473.596198506013	0.30049271098687313
27.0	470.57739172498987	stim	7		17	0.55	1.0	47.0	28.0		473.8966912169999	0.3078706220112508
27.0	470.8852623470011	stim	8		25	0.55	1.0	47.0	28.0		474.20456183901115	0.575361499999417
27.0	471.46062384700053	stim	9		106	0.55	1.0	47.0	28.0		474.77992333901057	1.7734168939932715
27.0	473.2294908390031	response	9	k		0.55	1.0	47.0	28.0		476.54879033101315	
27.0	473.2340407409938	choice	9		241					2.0	476.55334023300384	2.24320557199826
28.0	475.47724631299207	stim	0		15	0.55	1.0	66.0	28.0		478.7965458050021	0.2501266350009246
28.0	475.727372947993	stim	1		18	0.55	1.0	66.0	28.0		479.046672440003	0.2996930009976495
28.0	476.02706594899064	stim	2		18	0.55	1.0	66.0	28.0		479.34636544100067	0.3003045369987376
28.0	476.3273704859894	stim	3		30	0.55	1.0	66.0	28.0		479.6466699779994	0.5224039770109812
28.0	476.84977446300036	stim	4		17	0.55	1.0	66.0	28.0		480.1690739550104	0.5942653679958312
28.0	477.4440398309962	stim	5		298	0.55	1.0	66.0	28.0		480.7633393230062	4.982661244997871
28.0	482.42670107599406	stim	6		17	0.55	1.0	66.0	28.0		485.7460005680041	0.30020825599785894
28.0	482.7269093319919	stim	7		18	0.55	1.0	66.0	28.0		486.04620882400195	0.30779099999926984
28.0	483.0347003319912	stim	8		26	0.55	1.0	66.0	28.0		486.3539998240012	0.5959538150054868
28.0	483.6306541469967	stim	9		47	0.55	1.0	66.0	28.0		486.9499536390067	0.7864601899927948
28.0	484.4123710290005	response	9	j		0.55	1.0	66.0	28.0		487.7316705210105	
28.0	484.41711433698947	choice	9		240					1.0	487.7364138289995	3.2100557040103013
29.0	487.6271700409998	stim	0		15	0.55	1.0	19.0	14.0		490.9464695330098	0.25244230100361165
29.0	487.8796123420034	stim	1		18	0.55	1.0	19.0	14.0		491.1989118340134	0.2970090529997833
29.0	488.17662139500317	stim	2		18	0.55	1.0	19.0	14.0		491.4959208870132	0.29995958699146286
29.0	488.47658098199463	stim	3		29	0.55	1.0	19.0	14.0		491.79588047400466	0.5044074339966755
29.0	488.9809884159913	stim	4		30	0.55	1.0	19.0	14.0		492.30028790800134	0.585830704003456
29.0	489.56681911999476	stim	5		301	0.55	1.0	19.0	14.0		492.8861186120048	5.002719837008044
29.0	494.5695389570028	stim	6		18	0.55	1.0	19.0	14.0		497.88883844901284	0.2998673699912615
29.0	494.86940632699407	stim	7		18	0.55	1.0	19.0	14.0		498.1887058190041	0.2999680119974073
29.0	495.1693743389915	stim	8		36	0.55	1.0	19.0	14.0		498.4886738310015	0.6000747270009015
29.0	495.7694490659924	stim	9		55	0.55	1.0	19.0	14.0		499.0887485580024	0.9239530690101674
29.0	496.6887415389938	response	9	k		0.55	1.0	19.0	14.0		500.0080410310038	
29.0	496.69340213500254	choice	9		240					2.0	500.0127016270126	3.076294981990941
30.0	499.7696971169935	stim	0		15	0.55	1.0	112.0	28.0		503.0889966090035	0.2498645489977207
30.0	500.0195616659912	stim	1		18	0.55	1.0	112.0	28.0		503.33886115800124	0.2998799500055611
30.0	500.31944161599677	stim	2		18	0.55	1.0	112.0	28.0		503.6387411080068	0.30019237200031057
30.0	500.6196339879971	stim	3		30	0.55	1.0	112.0	28.0		503.9389334800071	0.5343521360045997
30.0	501.1539861240017	stim	4		12	0.55	1.0	112.0	28.0		504.4732856160117	0.60597084199253
30.0	501.7599569659942	stim	5		298	0.55	1.0	112.0	28.0		505.07925645800424	4.966555282007903
30.0	506.7265122480021	stim	6		18	0.55	1.0	112.0	28.0		510.04581174001214	0.3002321179956198
30.0	507.02674436599773	stim	7		18	0.55	1.0	112.0	28.0		510.34604385800776	0.30732822099525947
30.0	507.334072586993	stim	8		25	0.55	1.0	112.0	28.0		510.653372079003	0.5763719870010391
30.0	507.910444573994	stim	9		16	0.55	1.0	112.0	28.0		511.22974406600406	0.27363979200890753
30.0	508.1792790390027	response	9	j		0.55	1.0	112.0	28.0		511.49857853101275	
30.0	508.18408436600293	choice	9		240					1.0	511.50338385801297	3.742540729988832
2.0	511.92662509599177	stim	0		277						515.2459245880018	4.999684791997424
2.0	516.8287507249916	response	0	space							520.1480502170016	
31.0	516.9263098879892	stim	0		15	1.0	0.55	14.0	33.0		520.2456093799992	0.2501662240101723
31.0	517.1764761119994	stim	1		18	1.0	0.55	14.0	33.0		520.4957756040094	0.29969017900293693
31.0	517.4761662910023	stim	2		18	1.0	0.55	14.0	33.0		520.7954657830123	0.30004520299553405
31.0	517.7762114939978	stim	3		30	1.0	0.55	14.0	33.0		521.0955109860079	0.5024359240051126
31.0	518.278647418003	stim	4		33	1.0	0.55	14.0	33.0		521.597946910013	0.5974978879967239
31.0	518.8761453059997	stim	5		299	1.0	0.55	14.0	33.0		522.1954447980097	4.999966406991007
31.0	523.8761117129907	stim	6		17	1.0	0.55	14.0	33.0		527.1954112050007	0.30025510099949315
31.0	524.1763668139902	stim	7		18	1.0	0.55	14.0	33.0		527.4956663060002	0.3096260780002922
31.0	524.4859928919905	stim	8		24	1.0	0.55	14.0	33.0		527.8052923840005	0.5806510190013796
31.0	525.0666439109918	stim	9		32	1.0	0.55	14.0	33.0		528.3859434030019	0.5339461670082528
31.0	525.5955790070002	response	9	k		1.0	0.55	14.0	33.0		528.9148784990102	
31.0	525.6005900780001	choice	9		241					2.0	528.9198895700101	3.4759339619922685
32.0	529.0765240399924	stim	0		15	1.0	0.55	28.0	94.0		532.3958235320024	0.24965218800934963
32.0	529.3261762280017	stim	1		17	1.0	0.55	28.0	94.0		532.6454757200117	0.299970072999713
32.0	529.6261463010014	stim	2		18	1.0	0.55	28.0	94.0		532.9454457930115	0.3001836019975599
32.0	529.926329902999	stim	3		30	1.0	0.55	28.0	94.0		533.245629395009	0.5074705220031319
32.0	530.4338004250021	stim	4		26	1.0	0.55	28.0	94.0		533.7530999170122	0.5937670879939105
32.0	531.027567512996	stim	5		300	1.0	0.55	28.0	94.0		534.3468670050061	4.998492655999144
32.0	536.0260601689952	stim	6		18	1.0	0.55	28.0	94.0		539.3453596610052	0.30013107700506225
32.0	536.3261912460002	stim	7		18	1.0	0.55	28.0	94.0		539.6454907380103	0.33128234300238546
32.0	536.6574735890026	stim	8		13	1.0	0.55	28.0	94.0		539.9767730810127	0.5730509479908505
32.0	537.2305245369935	stim	9		71	1.0	0.55	28.0	94.0		540.5498240290035	1.1856256839964772
32.0	538.4116710509988	response	9	k		1.0	0.55	28.0	94.0		541.7309705430089	
32.0	538.41615022099	choice	9		238					2.0	541.735449713	2.8099032480095048
33.0	541.2260534689995	stim	0		14	1.0	0.55	20.0	56.0		544.5453529610095	0.25022902799537405
33.0	541.4762824969948	stim	1		18	1.0	0.55	20.0	56.0		544.7955819890049	0.2995770779962186
33.0	541.775859574991	stim	2		18	1.0	0.55	20.0	56.0		545.0951590670011	0.3004326540103648
33.0	542.0762922290014	stim	3		30	1.0	0.55	20.0	56.0		545.3955917210114	0.5045331529981922
33.0	542.5808253819996	stim	4		29	1.0	0.55	20.0	56.0		545.9001248740096	0.5818096169969067
33.0	543.1626349989965	stim	5		301	1.0	0.55	20.0	56.0		546.4819344910065	5.02713492300245
33.0	548.189769921999	stim	6		17	1.0	0.55	20.0	56.0		551.509069414009	0.2863360479968833
33.0	548.4761059699958	stim	7		18	1.0	0.55	20.0	56.0		551.7954054620059	0.3181202309933724
33.0	548.7942262009892	stim	8		18	1.0	0.55	20.0	56.0		552.1135256929992	0.5819489420100581
33.0	549.3761751429993	stim	9		62	1.0	0.55	20.0	56.0		552.6954746350093	1.0408900640031788
33.0	550.4118916509906	response	9	k		1.0	0.55	20.0	56.0		553.7311911430006	
33.0	550.4170652070025	choice	9		239					2.0	553.7363646990125	2.959034478000831
34.0	553.3760996850033	stim	0		14	1.0	0.55	10.0	16.0		556.6953991770133	0.24669470198568888
34.0	553.622794386989	stim	1		17	1.0	0.55	10.0	16.0		556.942093878999	0.3029005670105107
34.0	553.9256949539995	stim	2		18	1.0	0.55	10.0	16.0		557.2449944460095	0.30038330500246957
34.0	554.226078259002	stim	3		29	1.0	0.55	10.0	16.0		557.545377751012	0.5003279419906903
34.0	554.7264062009926	stim	4		36	1.0	0.55	10.0	16.0		558.0457056930027	0.5993680730025517
34.0	555.3257742739952	stim	5		299	1.0	0.55	10.0	16.0		558.6450737660052	4.999700679996749
34.0	560.3254749539919	stim	6		17	1.0	0.55	10.0	16.0		563.644774446002	0.30019079901103396
34.0	560.625665753003	stim	7		18	1.0	0.55	10.0	16.0		563.944965245013	0.3030035859992495
34.0	560.9286693390022	stim	8		31	1.0	0.55	10.0	16.0		564.2479688310123	0.5874491859867703
34.0	561.516118524989	stim	9		49	1.0	0.55	10.0	16.0		564.835418016999	0.8143516610143706
34.0	562.3116814059904	response	9	j		1.0	0.55	10.0	16.0		565.6309808980004	
34.0	562.3304701860034	choice	9		241					1.0	565.6497696780134	3.195366098996601
35.0	565.525836285	stim	0		14	1.0	0.55	14.0	28.0		568.84513577701	0.2499023260024842
35.0	565.7757386110025	stim	1		18	1.0	0.55	14.0	28.0		569.0950381030125	0.2998362609941978
35.0	566.0755748719967	stim	2		18	1.0	0.55	14.0	28.0		569.3948743640067	0.300141943997005
35.0	566.3757168159937	stim	3		30	1.0	0.55	14.0	28.0		569.6950163080037	0.5028903430065839
35.0	566.8786071590002	stim	4		33	1.0	0.55	14.0	28.0		570.1979066510103	0.5978530949942069
35.0	567.4764602539944	stim	5		298	1.0	0.55	14.0	28.0		570.7957597460045	4.99899755899969
35.0	572.4754578129941	stim	6		17	1.0	0.55	14.0	28.0		575.7947573050042	0.30001605200232007
35.0	572.7754738649965	stim	7		18	1.0	0.55	14.0	28.0		576.0947733570065	0.30805957499251235
35.0	573.083533439989	stim	8		26	1.0	0.55	14.0	28.0		576.402832931999	0.5972492320142919
35.0	573.6807826720033	stim	9		60	1.0	0.55	14.0	28.0		577.0000821640133	1.0020648329955293
35.0	574.6777661899978	response	9	k		1.0	0.55	14.0	28.0		577.9970656820078	
35.0	574.6828475049988	choice	9		240					2.0	578.0021469970088	2.9929416249942733
36.0	577.6757891299931	stim	0		15	1.0	0.55	10.0	11.0		580.9950886220031	0.24986494099721313
36.0	577.9256540709903	stim	1		18	1.0	0.55	10.0	11.0		581.2449535630003	0.29973807799979113
36.0	578.2253921489901	stim	2		18	1.0	0.55	10.0	11.0		581.5446916410001	0.30034158000489697
36.0	578.525733728995	stim	3		30	1.0	0.55	10.0	11.0		581.845033221005	0.5003652879968286
36.0	579.0260990169918	stim	4		36	1.0	0.55	10.0	11.0		582.3453985090018	0.5994846829999005
36.0	579.6255836999917	stim	5		299	1.0	0.55	10.0	11.0		582.9448831920017	4.999713990007876
36.0	584.6252976899996	stim	6		17	1.0	0.55	10.0	11.0		587.9445971820096	0.30001316400012
36.0	584.9253108539997	stim	7		18	1.0	0.55	10.0	11.0		588.2446103460097	0.30112004600232467
36.0	585.226430900002	stim	8		36	1.0	0.55	10.0	11.0		588.545730392012	0.599032341997372
36.0	585.8254632419994	stim	9		38	1.0	0.55	10.0	11.0		589.1447627340094	0.6406502930040006
36.0	586.4611156669998	response	9	j		1.0	0.55	10.0	11.0		589.7804151590099	
36.0	586.4661135350034	choice	9		240					1.0	589.7854130270134	3.3591921719926177
37.0	589.825305706996	stim	0		15	1.0	0.55	28.0	112.0		593.144605199006	0.25027008399774786
37.0	590.0755757909938	stim	1		18	1.0	0.55	28.0	112.0		593.3948752830038	0.29955447000975255
37.0	590.3751302610035	stim	2		18	1.0	0.55	28.0	112.0		593.6944297530135	0.3003158379870001
37.0	590.6754460989905	stim	3		30	1.0	0.55	28.0	112.0		593.9947455910005	0.5082183460035594
37.0	591.1836644449941	stim	4		26	1.0	0.55	28.0	112.0		594.5029639370041	0.5976386050024303
37.0	591.7813030499965	stim	5		299	1.0	0.55	28.0	112.0		595.1006025420065	4.982130770004005
37.0	596.7634338200005	stim	6		18	1.0	0.55	28.0	112.0		600.0827333120105	0.3041313379944768
37.0	597.067565157995	stim	7		18	1.0	0.55	28.0	112.0		600.386864650005	0.3345929920033086
37.0	597.4021581499983	stim	8		12	1.0	0.55	28.0	112.0		600.7214576420083	0.5963123499968788
37.0	597.9984704999952	stim	9		27	1.0	0.55	28.0	112.0		601.3177699920052	0.46371342000202276
37.0	598.4575988959987	response	9	k		1.0	0.55	28.0	112.0		601.7768983880087	
37.0	598.4621839199972	choice	9		238					2.0	601.7814834120072	3.512879782996606
38.0	601.9750637029938	stim	0		14	1.0	0.55	7.0	9.0		605.2943631950038	0.24766892500338145
38.0	602.2227326279972	stim	1		18	1.0	0.55	7.0	9.0		605.5420321200072	0.3161440840049181
38.0	602.5388767120021	stim	2		17	1.0	0.55	7.0	9.0		605.8581762040121	0.286263528993004
38.0	602.8251402409951	stim	3		30	1.0	0.55	7.0	9.0		606.1444397330051	0.4997495020070346
38.0	603.3248897430021	stim	4		36	1.0	0.55	7.0	9.0		606.6441892350122	0.6000699649885064
38.0	603.9249597079906	stim	5		299	1.0	0.55	7.0	9.0		607.2442592000007	4.999767316010548
38.0	608.9247270240012	stim	6		18	1.0	0.55	7.0	9.0		612.2440265160112	0.30038269999204203
38.0	609.2251097239932	stim	7		18	1.0	0.55	7.0	9.0		612.5444092160033	0.29952193700592034
38.0	609.5246316609991	stim	8		36	1.0	0.55	7.0	9.0		612.8439311530092	0.6004513779917033
38.0	610.1250830389909	stim	9		21	1.0	0.55	7.0	9.0		613.4443825310009	0.3575774370110594
38.0	610.477645202991	response	9	j		1.0	0.55	7.0	9.0		613.796944695001	
38.0	610.4826604760019	choice	9		235					1.0	613.8019599680119	3.6350625669874717
39.0	614.1177230429894	stim	0		15	1.0	0.55	20.0	28.0		617.4370225349994	0.2501198270038003
39.0	614.3678428699932	stim	1		18	1.0	0.55	20.0	28.0		617.6871423620032	0.2999451189971296
39.0	614.6677879889903	stim	2		18	1.0	0.55	20.0	28.0		617.9870874810003	0.2999680810025893
39.0	614.9677560699929	stim	3		30	1.0	0.55	20.0	28.0		618.2870555620029	0.49964389800152276
39.0	615.4673999679944	stim	4		36	1.0	0.55	20.0	28.0		618.7866994600045	0.6003068370046094
39.0	616.067706804999	stim	5		300	1.0	0.55	20.0	28.0		619.3870062970091	4.999711729993578
39.0	621.0674185349926	stim	6		18	1.0	0.55	20.0	28.0		624.3867180270026	0.2998889830050757
39.0	621.3673075179977	stim	7		18	1.0	0.55	20.0	28.0		624.6866070100077	0.30141318899404723
39.0	621.6687207069917	stim	8		27	1.0	0.55	20.0	28.0		624.9880201990018	0.6062830510054482
39.0	622.2750037579972	stim	9		31	1.0	0.55	20.0	28.0		625.5943032500072	0.523949640992214
39.0	622.7940192309907	response	9	j		1.0	0.55	20.0	28.0		626.1133187230007	
39.0	622.7989533989894	choice	9		240					1.0	626.1182528909994	3.4757046090089716
40.0	626.2746580079984	stim	0		15	1.0	0.55	7.0	28.0		629.5939575000084	0.24991244899865706
40.0	626.524570456997	stim	1		18	1.0	0.55	7.0	28.0		629.8438699490071	0.2997453980060527
40.0	626.8243158550031	stim	2		18	1.0	0.55	7.0	28.0		630.1436153470131	0.30029883098904975
40.0	627.1246146859921	stim	3		30	1.0	0.55	7.0	28.0		630.4439141780022	0.4999472260096809
40.0	627.6245619120018	stim	4		36	1.0	0.55	7.0	28.0		630.9438614040118	0.6001455679943319
40.0	628.2247074799961	stim	5		299	1.0	0.55	7.0	28.0		631.5440069720062	4.999703498004237
40.0	633.2244109780004	stim	6		17	1.0	0.55	7.0	28.0		636.5437104700104	0.298075835002237
40.0	633.5224868130026	stim	7		18	1.0	0.55	7.0	28.0		636.8417863050126	0.3097026659961557
40.0	633.8321894789988	stim	8		26	1.0	0.55	7.0	28.0		637.1514889710088	0.5955242950003594
40.0	634.4277137739991	stim	9		20	1.0	0.55	7.0	28.0		637.7470132660092	0.3375579940038733
40.0	634.7604810369958	response	9	k		1.0	0.55	7.0	28.0		638.0797805290058	
40.0	634.765271768003	choice	9		240					2.0	638.084571260013	3.6592589449865045
3.0	638.4245307129895	stim	0		699						641.7438302049995	11.684599106010864
3.0	650.0934358489903	response	0	space							653.4127353410004	
3.0	650.1091298190004	stim	0		274						653.4284293110104	5.014807956002187
3.0	655.0593966689921	response	0	space							658.3786961610022	
41.0	655.1239377750026	stim	0		15	1.0	0.55	28.0	33.0		658.4432372670126	0.2503335739893373
41.0	655.3742713489919	stim	1		18	1.0	0.55	28.0	33.0		658.6935708410019	0.29979017600999214
41.0	655.6740615250019	stim	2		18	1.0	0.55	28.0	33.0		658.9933610170119	0.3003172759927111
41.0	655.9743788009946	stim	3		30	1.0	0.55	28.0	33.0		659.2936782930046	0.5082588009972824
41.0	656.4826376019919	stim	4		26	1.0	0.55	28.0	33.0		659.8019370940019	0.5920215320074931
41.0	657.0746591339994	stim	5		299	1.0	0.55	28.0	33.0		660.3939586260094	4.999118820996955
41.0	662.0737779549963	stim	6		17	1.0	0.55	28.0	33.0		665.3930774470064	0.3003496260062093
41.0	662.3741275810025	stim	7		18	1.0	0.55	28.0	33.0		665.6934270730126	0.31013266000081785
41.0	662.6842602410034	stim	8		24	1.0	0.55	28.0	33.0		666.0035597330134	0.580559332986013
41.0	663.2648195739894	stim	9		25	1.0	0.55	28.0	33.0		666.5841190659994	0.4157230660057394
41.0	663.6758552449901	response	9	j		1.0	0.55	28.0	33.0		666.9951547370001	
41.0	663.6805426399951	choice	9		241					1.0	666.9998421320051	3.593666604007012
42.0	667.2742092440021	stim	0		14	1.0	0.55	20.0	33.0		670.5935087360122	0.250016110992874
42.0	667.524225354995	stim	1		18	1.0	0.55	20.0	33.0		670.843524847005	0.3136658090079436
42.0	667.8378911640029	stim	2		17	1.0	0.55	20.0	33.0		671.157190656013	0.2863664769975003
42.0	668.1242576410004	stim	3		30	1.0	0.55	20.0	33.0		671.4435571330105	0.504743764991872
42.0	668.6290014059923	stim	4		29	1.0	0.55	20.0	33.0		671.9483008980023	0.5951882460067281
42.0	669.224189651999	stim	5		299	1.0	0.55	20.0	33.0		672.5434891440091	4.999645586998668
42.0	669.6758198699972	response	5	p		1.0	0.55	20.0	33.0		672.9951193620072	
42.0	674.2238352389977	stim	6		18	1.0	0.55	20.0	33.0		677.5431347310077	0.30052136699669063
42.0	674.5243566059944	stim	7		18	1.0	0.55	20.0	33.0		677.8436560980044	0.30957905200193636
42.0	674.8339356579963	stim	8		24	1.0	0.55	20.0	33.0		678.1532351500064	0.5902042829984566
42.0	675.4241399409948	stim	9		29	1.0	0.55	20.0	33.0		678.7434394330048	0.491104879998602
42.0	675.9100907669927	response	9	j		1.0	0.55	20.0	33.0		679.2293902590027	
42.0	675.9152448209934	choice	9		240					1.0	679.2345443130034	3.5087193560029846
43.0	679.4239641769964	stim	0		15	1.0	0.55	7.0	11.0		682.7432636690064	0.2499935679952614
43.0	679.6739577449916	stim	1		18	1.0	0.55	7.0	11.0		682.9932572370017	0.31360348300950136
43.0	679.9875612280011	stim	2		17	1.0	0.55	7.0	11.0		683.3068607200112	0.28649256700009573
43.0	680.2740537950012	stim	3		30	1.0	0.55	7.0	11.0		683.5933532870113	0.4997327890014276
43.0	680.7737865840027	stim	4		36	1.0	0.55	7.0	11.0		684.0930860760127	0.6002629039867315
43.0	681.3740494879894	stim	5		299	1.0	0.55	7.0	11.0		684.6933489799994	4.999512831011089
43.0	686.3735623190005	stim	6		18	1.0	0.55	7.0	11.0		689.6928618110105	0.30015762300172355
43.0	686.6737199420022	stim	7		18	1.0	0.55	7.0	11.0		689.9930194340122	0.30096812099509407
43.0	686.9746880629973	stim	8		35	1.0	0.55	7.0	11.0		690.2939875550073	0.5824825759918895
43.0	687.5571706389892	stim	9		86	1.0	0.55	7.0	11.0		690.8764701309992	1.4409847100032493
43.0	688.9923811149929	response	9	k		1.0	0.55	7.0	11.0		692.3116806070029	
43.0	688.9981553489924	choice	9		240					2.0	692.3174548410025	2.572887892005383
44.0	691.5710432409978	stim	0		14	1.0	0.55	14.0	23.0		694.8903427330079	0.25279452999529894
44.0	691.8238377709931	stim	1		18	1.0	0.55	14.0	23.0		695.1431372630032	0.2996916389965918
44.0	692.1235294099897	stim	2		18	1.0	0.55	14.0	23.0		695.4428289019997	0.30031174400937743
44.0	692.4238411539991	stim	3		29	1.0	0.55	14.0	23.0		695.7431406460091	0.5022173479956109
44.0	692.9260585019947	stim	4		32	1.0	0.55	14.0	23.0		696.2453579940047	0.5822221810085466
44.0	693.5082806830032	stim	5		301	1.0	0.55	14.0	23.0		696.8275801750133	5.0151808349910425
44.0	698.5234615179943	stim	6		18	1.0	0.55	14.0	23.0		701.8427610100043	0.3002110170054948
44.0	698.8236725349998	stim	7		18	1.0	0.55	14.0	23.0		702.1429720270098	0.30526951399224345
44.0	699.128942048992	stim	8		28	1.0	0.55	14.0	23.0		702.4482415410021	0.5949121010053204
44.0	699.7238541499974	stim	9		100	1.0	0.55	14.0	23.0		703.0431536420074	1.688729458997841
44.0	701.3937647949933	response	9	j		1.0	0.55	14.0	23.0		704.7130642870034	
44.0	701.4125836089952	choice	9		238					1.0	704.7318831010052	2.311035336999339
45.0	703.7236189459945	stim	0		14	1.0	0.55	14.0	39.0		707.0429184380046	0.2499975929968059
45.0	703.9736165389913	stim	1		18	1.0	0.55	14.0	39.0		707.2929160310014	0.2996492340025725
45.0	704.2732657729939	stim	2		18	1.0	0.55	14.0	39.0		707.5925652650039	0.30019998700299766
45.0	704.5734657599969	stim	3		30	1.0	0.55	14.0	39.0		707.8927652520069	0.5024701439979253
45.0	705.0759359039948	stim	4		32	1.0	0.55	14.0	39.0		708.3952353960049	0.5838928849989315
45.0	705.6598287889938	stim	5		301	1.0	0.55	14.0	39.0		708.9791282810038	5.013224217997049
45.0	710.6730530069908	stim	6		18	1.0	0.55	14.0	39.0		713.9923524990008	0.30014308101090137
45.0	710.9731960880017	stim	7		18	1.0	0.55	14.0	39.0		714.2924955800117	0.3119225970003754
45.0	711.2851186850021	stim	8		22	1.0	0.55	14.0	39.0		714.6044181770121	0.5790255339961732
45.0	711.8641442189983	stim	9		17	1.0	0.55	14.0	39.0		715.1834437110083	0.28074576299695764
45.0	712.1398063020024	response	9	k		1.0	0.55	14.0	39.0		715.4591057940124	
45.0	712.1448899819952	choice	9		240					2.0	715.4641894740053	3.7281599790003384
46.0	715.8730499609956	stim	0		14	1.0	0.55	20.0	80.0		719.1923494530056	0.24985593900782987
46.0	716.1229059000034	stim	1		18	1.0	0.55	20.0	80.0		719.4422053920134	0.2999937659915304
46.0	716.4228996659949	stim	2		18	1.0	0.55	20.0	80.0		719.742199158005	0.3003126940020593
46.0	716.723212359997	stim	3		30	1.0	0.55	20.0	80.0		720.042511852007	0.5044052869925508
46.0	717.2276176469895	stim	4		29	1.0	0.55	20.0	80.0		720.5469171389996	0.5958120970026357
46.0	717.8234297439922	stim	5		300	1.0	0.55	20.0	80.0		721.1427292360022	4.999283868004568
46.0	722.8227136119967	stim	6		17	1.0	0.55	20.0	80.0		726.1420131040068	0.3002645560045494
46.0	723.1229781680013	stim	7		18	1.0	0.55	20.0	80.0		726.4422776600113	0.326404683990404
46.0	723.4493828519917	stim	8		15	1.0	0.55	20.0	80.0		726.7686823440017	0.5972342080058297
46.0	724.0466170599975	stim	9		20	1.0	0.55	20.0	80.0		727.3659165520075	0.33418620999145787
46.0	724.3756414689997	response	9	k		1.0	0.55	20.0	80.0		727.6949409610097	
46.0	724.380803269989	choice	9		239					2.0	727.700102761999	3.6424831810145406
47.0	728.0232864510035	stim	0		15	1.0	0.55	14.0	56.0		731.3425859430135	0.2497435089899227
47.0	728.2730299599934	stim	1		18	1.0	0.55	14.0	56.0		731.5923294520035	0.29985016300634015
47.0	728.5728801229998	stim	2		18	1.0	0.55	14.0	56.0		731.8921796150098	0.30036833199847024
47.0	728.8732484549982	stim	3		30	1.0	0.55	14.0	56.0		732.1925479470083	0.5024221560015576
47.0	729.3756706109998	stim	4		33	1.0	0.55	14.0	56.0		732.6949701030098	0.5976446699933149
47.0	729.9733152809931	stim	5		297	1.0	0.55	14.0	56.0		733.2926147730032	4.999572289001662
47.0	734.9728875699948	stim	6		18	1.0	0.55	14.0	56.0		738.2921870620048	0.3000291820062557
47.0	735.272916752001	stim	7		18	1.0	0.55	14.0	56.0		738.5922162440111	0.3178418749885168
47.0	735.5907586269896	stim	8		18	1.0	0.55	14.0	56.0		738.9100581189996	0.5820525840099435
47.0	736.1728112109995	stim	9		33	1.0	0.55	14.0	56.0		739.4921107030095	0.5567042189941276
47.0	736.7247021469957	response	9	k		1.0	0.55	14.0	56.0		740.0440016390057	
47.0	736.7295154299936	choice	9		239					2.0	740.0488149220037	3.4432195800036425
48.0	740.1727350099973	stim	0		14	1.0	0.55	7.0	16.0		743.4920345020073	0.24766749200352933
48.0	740.4204025020008	stim	1		18	1.0	0.55	7.0	16.0		743.7397019940108	0.31844220899802167
48.0	740.7388447109988	stim	2		17	1.0	0.55	7.0	16.0		744.0581442030089	0.28399398099281825
48.0	741.0228386919916	stim	3		29	1.0	0.55	7.0	16.0		744.3421381840017	0.4998661020072177
48.0	741.5227047939989	stim	4		36	1.0	0.55	7.0	16.0		744.8420042860089	0.6003136029903544
48.0	742.1230183969892	stim	5		300	1.0	0.55	7.0	16.0		745.4423178889992	5.013551123003708
48.0	747.1365695199929	stim	6		17	1.0	0.55	7.0	16.0		750.455869012003	0.2862075090088183
48.0	747.4227770290017	stim	7		18	1.0	0.55	7.0	16.0		750.7420765210118	0.3031637099920772
48.0	747.7259407389938	stim	8		31	1.0	0.55	7.0	16.0		751.0452402310038	0.5841799949994311
48.0	748.3101207339932	stim	9		53	1.0	0.55	7.0	16.0		751.6294202260033	0.8857995010039303
48.0	749.1912544369989	response	9	j		1.0	0.55	7.0	16.0		752.5105539290089	
48.0	749.1959202349972	choice	9		240					1.0	752.5152197270072	3.1266881030023796
49.0	752.3226083379996	stim	0		14	1.0	0.55	10.0	20.0		755.6419078300096	0.24980091999168508
49.0	752.5724092579912	stim	1		18	1.0	0.55	10.0	20.0		755.8917087500013	0.2996761670074193
49.0	752.8720854249987	stim	2		18	1.0	0.55	10.0	20.0		756.1913849170087	0.30038861199864186
49.0	753.1724740369973	stim	3		30	1.0	0.55	10.0	20.0		756.4917735290073	0.5002815299958456
49.0	753.6727555669931	stim	4		36	1.0	0.55	10.0	20.0		756.9920550590032	0.5998952230002033
49.0	754.2726507899933	stim	5		300	1.0	0.55	10.0	20.0		757.5919502820034	4.999767838002299
49.0	759.2724186279956	stim	6		18	1.0	0.55	10.0	20.0		762.5917181200057	0.30034280399559066
49.0	759.5727614319912	stim	7		17	1.0	0.55	10.0	20.0		762.8920609240013	0.30450498100253753
49.0	759.8772664129938	stim	8		29	1.0	0.55	10.0	20.0		763.1965659050038	0.5954187489987817
49.0	760.4726851619926	stim	9		73	1.0	0.55	10.0	20.0		763.7919846540026	1.2407621480087982
49.0	761.7082477259974	response	9	k		1.0	0.55	10.0	20.0		765.0275472180074	
49.0	761.7134473100014	choice	9		239					2.0	765.0327468020114	2.7587256749975495
50.0	764.4721729849989	stim	0		15	1.0	0.55	20.0	40.0		767.7914724770089	0.25013062299694866
50.0	764.7223036079959	stim	1		18	1.0	0.55	20.0	40.0		768.0416031000059	0.313672685995698
50.0	765.0359762939916	stim	2		17	1.0	0.55	20.0	40.0		768.3552757860016	0.286212429011357
50.0	765.3221887230029	stim	3		30	1.0	0.55	20.0	40.0		768.6414882150129	0.5040686449938221
50.0	765.8262573679967	stim	4		29	1.0	0.55	20.0	40.0		769.1455568600068	0.5961697379971156
50.0	766.4224271059938	stim	5		299	1.0	0.55	20.0	40.0		769.7417265980039	4.99963919800939
50.0	771.4220663040032	stim	6		17	1.0	0.55	20.0	40.0		774.7413657960133	0.30037592399457935
50.0	771.7224422279978	stim	7		17	1.0	0.55	20.0	40.0		775.0417417200078	0.312317282994627
50.0	772.0347595109924	stim	8		22	1.0	0.55	20.0	40.0		775.3540590030025	0.590218894998543
50.0	772.624978405991	stim	9		32	1.0	0.55	20.0	40.0		775.944277898001	0.5385322270012693
50.0	773.1583930329944	response	9	k		1.0	0.55	20.0	40.0		776.4776925250044	
50.0	773.1635106329923	choice	9		240					2.0	776.4828101250023	3.4587033999996493
3.0	776.6222140329919	stim	0		284						779.9415135250019	4.9974759870092385
51.0	781.6196900200011	stim	0		14	0.55	1.0	20.0	10.0		784.9389895120112	0.2455156329961028
51.0	781.8652056529972	stim	1		18	0.55	1.0	20.0	10.0		785.1845051450073	0.299445440992713
51.0	782.16465109399	stim	2		18	0.55	1.0	20.0	10.0		785.483950586	0.2999223910010187
51.0	782.464573484991	stim	3		30	0.55	1.0	20.0	10.0		785.783872977001	0.4999141130101634
51.0	782.9644875980011	stim	4		31	0.55	1.0	20.0	10.0		786.2837870900112	0.6101794860005612
51.0	783.5746670840017	stim	5		300	0.55	1.0	20.0	10.0		786.8939665760117	4.996988610990229
51.0	788.5716556949919	stim	6		18	0.55	1.0	20.0	10.0		791.890955187002	0.2999941529997159
51.0	788.8716498479916	stim	7		18	0.55	1.0	20.0	10.0		792.1909493400017	0.3010133400093764
51.0	789.172663188001	stim	8		36	0.55	1.0	20.0	10.0		792.491962680011	0.5994752379920101
51.0	789.772138425993	stim	9		21	0.55	1.0	20.0	10.0		793.0914379180031	0.37157086600200273
51.0	790.1247864899924	response	9	j		0.55	1.0	20.0	10.0		793.4440859820024	
51.0	790.143709291995	choice	9		238					1.0	793.4630087840051	3.6282211630023085
52.0	793.7719304549973	stim	0		14	0.55	1.0	23.0	20.0		797.0912299470074	0.2500452590029454
52.0	794.0219757140003	stim	1		18	0.55	1.0	23.0	20.0		797.3412752060103	0.2927812760026427
52.0	794.3147569900029	stim	2		18	0.55	1.0	23.0	20.0		797.634056482013	0.29980708699440584
52.0	794.6145640769973	stim	3		30	0.55	1.0	23.0	20.0		797.9338635690074	0.49971418699715286
52.0	795.1142782639945	stim	4		36	0.55	1.0	23.0	20.0		798.4335777560045	0.6002394980023382
52.0	795.7145177619968	stim	5		300	0.55	1.0	23.0	20.0		799.0338172540069	4.999779492005473
52.0	800.7142972540023	stim	6		18	0.55	1.0	23.0	20.0		804.0335967460123	0.2999757929937914
52.0	801.0142730469961	stim	7		18	0.55	1.0	23.0	20.0		804.3335725390061	0.2999937360000331
52.0	801.3142667829961	stim	8		31	0.55	1.0	23.0	20.0		804.6335662750062	0.6105547339975601
52.0	801.9248215169937	stim	9		42	0.55	1.0	23.0	20.0		805.2441210090037	0.704785677997279
52.0	802.6245781850012	response	9	k		0.55	1.0	23.0	20.0		805.9438776770112	
52.0	802.629607194991	choice	9		240					2.0	805.948906687001	3.292335364007158
53.0	805.9219425589981	stim	0		15	0.55	1.0	14.0	7.0		809.2412420510082	0.24998168500314932
53.0	806.1719242440013	stim	1		18	0.55	1.0	14.0	7.0		809.4912237360113	0.29963458600104786
53.0	806.4715588300023	stim	2		18	0.55	1.0	14.0	7.0		809.7908583220124	0.30038960299862083
53.0	806.771948433001	stim	3		30	0.55	1.0	14.0	7.0		810.091247925011	0.5021388519962784
53.0	807.2740872849972	stim	4		32	0.55	1.0	14.0	7.0		810.5933867770073	0.5832053859921871
53.0	807.8572926709894	stim	5		299	0.55	1.0	14.0	7.0		811.1765921629994	5.028096436013584
53.0	812.885389107003	stim	6		16	0.55	1.0	14.0	7.0		816.204688599013	0.2864208149985643
53.0	813.1718099220016	stim	7		17	0.55	1.0	14.0	7.0		816.4911094140116	0.29978814399510156
53.0	813.4715980659967	stim	8		36	0.55	1.0	14.0	7.0		816.7908975580067	0.6002289530006237
53.0	814.0718270189973	stim	9		53	0.55	1.0	14.0	7.0		817.3911265110073	0.8908559599949513
53.0	814.9574965599895	response	9	k		0.55	1.0	14.0	7.0		818.2767960519996	
53.0	814.9626829789922	choice	9		240					2.0	818.2819824710023	3.108741992007708
54.0	818.0714249709999	stim	0		15	0.55	1.0	47.0	14.0		821.39072446301	0.24995647199102677
54.0	818.321381442991	stim	1		18	0.55	1.0	47.0	14.0		821.640680935001	0.31372659900807776
54.0	818.635108041999	stim	2		17	0.55	1.0	47.0	14.0		821.9544075340091	0.286492722996627
54.0	818.9216007649957	stim	3		30	0.55	1.0	47.0	14.0		822.2409002570057	0.5145064079988515
54.0	819.4361071729945	stim	4		20	0.55	1.0	47.0	14.0		822.7554066650046	0.5855868259968702
54.0	820.0216939989914	stim	5		298	0.55	1.0	47.0	14.0		823.3409934910014	4.999501823011087
54.0	825.0211958220025	stim	6		17	0.55	1.0	47.0	14.0		828.3404953140125	0.2978204019891564
54.0	825.3190162239916	stim	7		18	0.55	1.0	47.0	14.0		828.6383157160017	0.30454953500884585
54.0	825.6235657590005	stim	8		32	0.55	1.0	47.0	14.0		828.9428652510105	0.5846299650002038
54.0	826.2081957240007	stim	9		66	0.55	1.0	47.0	14.0		829.5274952160107	1.1040705490013352
54.0	827.3071484109969	response	9	j		0.55	1.0	47.0	14.0		830.6264479030069	
54.0	827.312266273002	choice	9		241					1.0	830.631565765012	2.909037001998513
55.0	830.2213032750005	stim	0		15	0.55	1.0	11.0	7.0		833.5406027670106	0.249874874993111
55.0	830.4711781499936	stim	1		18	0.55	1.0	11.0	7.0		833.7904776420037	0.2999204549996648
55.0	830.7710986049933	stim	2		18	0.55	1.0	11.0	7.0		834.0903980970033	0.30006365799636114
55.0	831.0711622629897	stim	3		30	0.55	1.0	11.0	7.0		834.3904617549997	0.4974579090048792
55.0	831.5686201719946	stim	4		36	0.55	1.0	11.0	7.0		834.8879196640046	0.5952420530084055
55.0	832.163862225003	stim	5		300	0.55	1.0	11.0	7.0		835.483161717013	5.000183386990102
55.0	837.1640456119931	stim	6		18	0.55	1.0	11.0	7.0		840.4833451040031	0.3000312850053888
55.0	837.4640768969984	stim	7		18	0.55	1.0	11.0	7.0		840.7833763890085	0.2996778429951519
55.0	837.7637547399936	stim	8		36	0.55	1.0	11.0	7.0		841.0830542320036	0.60018662600487
55.0	838.3639413659985	stim	9		86	0.55	1.0	11.0	7.0		841.6832408580085	1.4373156410001684
55.0	839.7854842279921	response	9	j		0.55	1.0	11.0	7.0		843.1047837200022	
55.0	839.8012570069986	choice	9		240					1.0	843.1205564990087	2.562311913992744
56.0	842.3635689209914	stim	0		15	0.55	1.0	67.0	20.0		845.6828684130014	0.25013106400729157
56.0	842.6136999849987	stim	1		18	0.55	1.0	67.0	20.0		845.9329994770087	0.29992229799972847
56.0	842.9136222829984	stim	2		18	0.55	1.0	67.0	20.0		846.2329217750084	0.29996489400218707
56.0	843.2135871770006	stim	3		30	0.55	1.0	67.0	20.0		846.5328866690106	0.5162764739943668
56.0	843.729863650995	stim	4		17	0.55	1.0	67.0	20.0		847.049163143005	0.6079976470064139
56.0	844.3378612980014	stim	5		299	0.55	1.0	67.0	20.0		847.6571607900114	4.98304757499136
56.0	849.3209088729927	stim	6		18	0.55	1.0	67.0	20.0		852.6402083650028	0.3001850370055763
56.0	849.6210939099983	stim	7		18	0.55	1.0	67.0	20.0		852.9403934020083	0.3045837639947422
56.0	849.925677673993	stim	8		29	0.55	1.0	67.0	20.0		853.2449771660031	0.5955992500093998
56.0	850.5212769240024	stim	9		63	0.55	1.0	67.0	20.0		853.8405764160125	1.0574455850000959
56.0	851.5737253469997	response	9	k		0.55	1.0	67.0	20.0		854.8930248390097	
56.0	851.5787225090025	choice	9		238					2.0	854.8980220010126	2.942475606992957
57.0	854.5211981159955	stim	0		14	0.55	1.0	23.0	7.0		857.8404976080055	0.2499554590031039
57.0	854.7711535749986	stim	1		17	0.55	1.0	23.0	7.0		858.0904530670086	0.2996463669987861
57.0	855.0707999419974	stim	2		18	0.55	1.0	23.0	7.0		858.3900994340074	0.30024082999443635
57.0	855.3710407719918	stim	3		30	0.55	1.0	23.0	7.0		858.6903402640019	0.5060316080052871
57.0	855.8770723799971	stim	4		28	0.55	1.0	23.0	7.0		859.1963718720071	0.5935702099959599
57.0	856.4706425899931	stim	5		300	0.55	1.0	23.0	7.0		859.7899420820031	4.999905243006651
57.0	861.4705478329997	stim	6		18	0.55	1.0	23.0	7.0		864.7898473250098	0.31647646299097687
57.0	861.7870242959907	stim	7		17	0.55	1.0	23.0	7.0		865.1063237880007	0.2838505300023826
57.0	862.0708748259931	stim	8		35	0.55	1.0	23.0	7.0		865.3901743180031	0.6000450310093584
57.0	862.6709198570024	stim	9		44	0.55	1.0	23.0	7.0		865.9902193490125	0.7410549589985749
57.0	863.4069841979945	response	9	j		0.55	1.0	23.0	7.0		866.7262836900045	
57.0	863.411974816001	choice	9		240					1.0	866.731274308011	3.2588637529988773
58.0	866.6708385689999	stim	0		14	0.55	1.0	56.0	28.0		869.9901380610099	0.24997328499739524
58.0	866.9208118539973	stim	1		18	0.55	1.0	56.0	28.0		870.2401113460073	0.29993788299907465
58.0	867.2207497369964	stim	2		18	0.55	1.0	56.0	28.0		870.5400492290064	0.30001609900500625
58.0	867.5207658360014	stim	3		30	0.55	1.0	56.0	28.0		870.8400653280114	0.5185231079958612
58.0	868.0392889439972	stim	4		18	0.55	1.0	56.0	28.0		871.3585884360073	0.5817466610023985
58.0	868.6210356049996	stim	5		299	0.55	1.0	56.0	28.0		871.9403350970097	4.999386305993539
58.0	873.6204219109932	stim	6		18	0.55	1.0	56.0	28.0		876.9397214030032	0.29994900499877986
58.0	873.920370915992	stim	7		18	0.55	1.0	56.0	28.0		877.239670408002	0.30864392600778956
58.0	874.2290148419997	stim	8		26	0.55	1.0	56.0	28.0		877.5483143340098	0.5956393239903264
58.0	874.8246541659901	stim	9		34	0.55	1.0	56.0	28.0		878.1439536580001	0.5705862840113696
58.0	875.3899349629937	response	9	k		0.55	1.0	56.0	28.0		878.7092344550038	
58.0	875.3952404500014	choice	9		239					2.0	878.7145399420115	3.425529436994111
59.0	878.8207698869955	stim	0		14	0.55	1.0	56.0	14.0		882.1400693790056	0.249964190996252
59.0	879.0707340779918	stim	1		17	0.55	1.0	56.0	14.0		882.3900335700018	0.2996009630005574
59.0	879.3703350409924	stim	2		18	0.55	1.0	56.0	14.0		882.6896345330024	0.3002493430103641
59.0	879.6705843840027	stim	3		30	0.55	1.0	56.0	14.0		882.9898838760128	0.5178920539910905
59.0	880.1884764379938	stim	4		18	0.55	1.0	56.0	14.0		883.5077759300038	0.582257946007303
59.0	880.7707343840011	stim	5		299	0.55	1.0	56.0	14.0		884.0900338760111	4.999557154995273
59.0	885.7702915389964	stim	6		17	0.55	1.0	56.0	14.0		889.0895910310064	0.29762666100577917
59.0	886.0679182000022	stim	7		18	0.55	1.0	56.0	14.0		889.3872176920122	0.30482741599553265
59.0	886.3727456159977	stim	8		33	0.55	1.0	56.0	14.0		889.6920451080077	0.6004992079979274
59.0	886.9732448239956	stim	9		36	0.55	1.0	56.0	14.0		890.2925443160057	0.6041122519964119
59.0	887.5724884139927	response	9	j		0.55	1.0	56.0	14.0		890.8917879060027	
59.0	887.577357075992	choice	9		240					1.0	890.8966565680021	3.393224359009764
60.0	890.9705814350018	stim	0		14	0.55	1.0	28.0	20.0		894.2898809270118	0.24978577200090513
60.0	891.2203672070027	stim	1		17	0.55	1.0	28.0	20.0		894.5396666990127	0.29983806698874105
60.0	891.5202052739915	stim	2		18	0.55	1.0	28.0	20.0		894.8395047660015	0.3003501190105453
60.0	891.820555393002	stim	3		29	0.55	1.0	28.0	20.0		895.139854885012	0.5080167529958999
60.0	892.3285721459979	stim	4		26	0.55	1.0	28.0	20.0		895.6478716380079	0.5978321799921105
60.0	892.92640432599	stim	5		299	0.55	1.0	28.0	20.0		896.245703818	4.993521317999694
60.0	897.9199256439897	stim	6		17	0.55	1.0	28.0	20.0		901.2392251359997	0.3002909310016548
60.0	898.2202165749914	stim	7		16	0.55	1.0	28.0	20.0		901.5395160670014	0.3038095770025393
60.0	898.5240261519939	stim	8		30	0.55	1.0	28.0	20.0		901.8433256440039	0.6028976399975363
60.0	899.1269237919914	stim	9		38	0.55	1.0	28.0	20.0		902.4462232840015	0.634510122006759
60.0	899.7561585499934	response	9	k		0.55	1.0	28.0	20.0		903.0754580420034	
60.0	899.7614339139982	choice	9		239					2.0	903.0807334060082	3.358953595990897
4.0	903.1203875099891	stim	0		563						906.4396870019991	9.418341800002963
4.0	912.5227641179954	response	0	space							915.8420636100054	
4.0	912.538729309992	stim	0		287						915.8580288020021	5.014278151997132
4.0	916.6238223809924	response	0	space							919.9431218730024	
61.0	917.5530074619892	stim	0		14	1.0	0.55	20.0	23.0		920.8723069539992	0.24995844101067632
61.0	917.5577762219909	response	0	j		1.0	0.55	20.0	23.0		920.877075714001	
61.0	917.8029659029999	stim	1		18	1.0	0.55	20.0	23.0		921.1222653950099	0.3139112369972281
61.0	918.1168771399971	stim	2		17	1.0	0.55	20.0	23.0		921.4361766320071	0.28623032200266607
61.0	918.4031074619998	stim	3		30	1.0	0.55	20.0	23.0		921.7224069540098	0.5046617059997516
61.0	918.9077691679995	stim	4		29	1.0	0.55	20.0	23.0		922.2270686600095	0.5953317959938431
61.0	919.5031009639933	stim	5		300	1.0	0.55	20.0	23.0		922.8224004560034	5.0137086089962395
61.0	924.5168095729896	stim	6		17	1.0	0.55	20.0	23.0		927.8361090649996	0.2865379050053889
61.0	924.803347477995	stim	7		18	1.0	0.55	20.0	23.0		928.122646970005	0.3061424100014847
61.0	925.1094898879965	stim	8		27	1.0	0.55	20.0	23.0		928.4287893800065	0.5773708579945378
61.0	925.686860745991	stim	9		30	1.0	0.55	20.0	23.0		929.006160238001	0.5237375940050697
61.0	926.2055246289965	response	9	j		1.0	0.55	20.0	23.0		929.5248241210065	
61.0	926.2105983399961	choice	9		240					1.0	929.5298978320061	3.492559220001567
62.0	929.7031575599976	stim	0		15	1.0	0.55	28.0	47.0		933.0224570520077	0.2501445340021746
62.0	929.9533020939998	stim	1		18	1.0	0.55	28.0	47.0		933.2726015860098	0.2995116819947725
62.0	930.2528137759946	stim	2		18	1.0	0.55	28.0	47.0		933.5721132680046	0.30041403499490116
62.0	930.5532278109895	stim	3		30	1.0	0.55	28.0	47.0		933.8725273029995	0.5079938750131987
62.0	931.0612216860027	stim	4		25	1.0	0.55	28.0	47.0		934.3805211780127	0.5788560479995795
62.0	931.6400777340023	stim	5		300	1.0	0.55	28.0	47.0		934.9593772260123	5.012742541992338
62.0	936.6528202759946	stim	6		17	1.0	0.55	28.0	47.0		939.9721197680046	0.3003141070075799
62.0	936.9531343830022	stim	7		18	1.0	0.55	28.0	47.0		940.2724338750122	0.3152821749972645
62.0	937.2684165579994	stim	8		20	1.0	0.55	28.0	47.0		940.5877160500095	0.5876387169992086
62.0	937.8560552749987	stim	9		72	1.0	0.55	28.0	47.0		941.1753547670087	1.2045491189928725
62.0	939.0555250710022	response	9	k		1.0	0.55	28.0	47.0		942.3748245630122	
62.0	939.0606043939915	choice	9		240					2.0	942.3799038860016	2.7924944390106248
63.0	941.8530988330022	stim	0		15	1.0	0.55	20.0	67.0		945.1723983250122	0.24983248399803415
63.0	942.1029313170002	stim	1		18	1.0	0.55	20.0	67.0		945.4222308090102	0.2995103829889558
63.0	942.4024416999891	stim	2		18	1.0	0.55	20.0	67.0		945.7217411919992	0.30059028801042587
63.0	942.7030319879996	stim	3		30	1.0	0.55	20.0	67.0		946.0223314800096	0.5045898590033175
63.0	943.2076218470029	stim	4		29	1.0	0.55	20.0	67.0		946.5269213390129	0.5955852049955865
63.0	943.8032070519985	stim	5		298	1.0	0.55	20.0	67.0		947.1225065440085	4.999416652994114
63.0	948.8026237049926	stim	6		17	1.0	0.55	20.0	67.0		952.1219231970026	0.300302517003729
63.0	949.1029262219963	stim	7		18	1.0	0.55	20.0	67.0		952.4222257140063	0.32282992599357385
63.0	949.4257561479899	stim	8		16	1.0	0.55	20.0	67.0		952.7450556399999	0.5642734340071911
63.0	949.9900295819971	stim	9		20	1.0	0.55	20.0	67.0		953.3093290740071	0.33575054799439386
63.0	950.3212281479937	response	9	k		1.0	0.55	20.0	67.0		953.6405276400037	
63.0	950.3257801299915	choice	9		241					2.0	953.6450796220015	3.677031924002222
64.0	954.0028120539937	stim	0		15	1.0	0.55	14.0	47.0		957.3221115460037	0.2500049009977374
64.0	954.2528169549914	stim	1		18	1.0	0.55	14.0	47.0		957.5721164470015	0.2997534710011678
64.0	954.5525704259926	stim	2		18	1.0	0.55	14.0	47.0		957.8718699180026	0.30010497399780434
64.0	954.8526753999904	stim	3		29	1.0	0.55	14.0	47.0		958.1719748920004	0.5023075230128597
64.0	955.3549829230033	stim	4		32	1.0	0.55	14.0	47.0		958.6742824150133	0.5844107999873813
64.0	955.9393937229906	stim	5		300	1.0	0.55	14.0	47.0		959.2586932150007	5.01287664200936
64.0	960.952270365	stim	6		17	1.0	0.55	14.0	47.0		964.27156985701	0.30044383999484126
64.0	961.2527142049948	stim	7		18	1.0	0.55	14.0	47.0		964.5720136970049	0.3152955359983025
64.0	961.5680097409931	stim	8		19	1.0	0.55	14.0	47.0		964.8873092330032	0.5848736309999367
64.0	962.1528833719931	stim	9		39	1.0	0.55	14.0	47.0		965.4721828640031	0.673862851006561
64.0	962.8217471629905	response	9	k		1.0	0.55	14.0	47.0		966.1410466550005	
64.0	962.8267462229996	choice	9		239					2.0	966.1460457150097	3.3258908610005165
65.0	966.1526370840002	stim	0		15	1.0	0.55	7.0	23.0		969.4719365760102	0.2499667529918952
65.0	966.4026038369921	stim	1		17	1.0	0.55	7.0	23.0		969.7219033290021	0.299571552008274
65.0	966.7021753890003	stim	2		17	1.0	0.55	7.0	23.0		970.0214748810104	0.30044764999183826
65.0	967.0026230389922	stim	3		30	1.0	0.55	7.0	23.0		970.3219225310022	0.4998322290048236
65.0	967.502455267997	stim	4		36	1.0	0.55	7.0	23.0		970.821754760007	0.6001210649992572
65.0	968.1025763329963	stim	5		300	1.0	0.55	7.0	23.0		971.4218758250063	5.013673099005246
65.0	973.1162494320015	stim	6		17	1.0	0.55	7.0	23.0		976.4355489240115	0.2862250239995774
65.0	973.4024744560011	stim	7		17	1.0	0.55	7.0	23.0		976.7217739480111	0.30602709199592937
65.0	973.708501547997	stim	8		28	1.0	0.55	7.0	23.0		977.027801040007	0.5975554610049585
65.0	974.306057009002	stim	9		100	1.0	0.55	7.0	23.0		977.625356501012	1.687236239988124
65.0	975.9880992819963	response	9	j		1.0	0.55	7.0	23.0		979.3073987740063	
65.0	975.9932932489901	choice	9		239					1.0	979.3125927410001	2.3091299869993236
66.0	978.3024232359894	stim	0		15	1.0	0.55	10.0	40.0		981.6217227279994	0.2499906790035311
66.0	978.5524139149929	stim	1		18	1.0	0.55	10.0	40.0		981.871713407003	0.2997056629974395
66.0	978.8521195779904	stim	2		18	1.0	0.55	10.0	40.0		982.1714190700004	0.3003657600056613
66.0	979.152485337996	stim	3		30	1.0	0.55	10.0	40.0		982.4717848300061	0.5004468560073292
66.0	979.6529321940034	stim	4		36	1.0	0.55	10.0	40.0		982.9722316860134	0.5998361519887112
66.0	980.2527683459921	stim	5		299	1.0	0.55	10.0	40.0		983.5720678380021	4.999250214008498
66.0	985.2520185600006	stim	6		17	1.0	0.55	10.0	40.0		988.5713180520106	0.30010865299846046
66.0	985.552127212999	stim	7		18	1.0	0.55	10.0	40.0		988.8714267050091	0.3134254199976567
66.0	985.8655526329967	stim	8		22	1.0	0.55	10.0	40.0		989.1848521250067	0.6036322040017694
66.0	986.4691848369985	stim	9		39	1.0	0.55	10.0	40.0		989.7884843290085	0.657133282002178
66.0	987.121288770999	response	9	k		1.0	0.55	10.0	40.0		990.440588263009	
66.0	987.1263181190006	choice	9		239					2.0	990.4456176110107	3.325837195996428
67.0	990.4521553149971	stim	0		15	1.0	0.55	7.0	14.0		993.7714548070071	0.2501220379926963
67.0	990.7022773529898	stim	1		18	1.0	0.55	7.0	14.0		994.0215768449998	0.29966857700492255
67.0	991.0019459299947	stim	2		18	1.0	0.55	7.0	14.0		994.3212454220047	0.3001916880020872
67.0	991.3021376179968	stim	3		30	1.0	0.55	7.0	14.0		994.6214371100068	0.4996954249945702
67.0	991.8018330429913	stim	4		36	1.0	0.55	7.0	14.0		995.1211325350014	0.6002882400061935
67.0	992.4021212829975	stim	5		299	1.0	0.55	7.0	14.0		995.7214207750076	4.999661395995645
67.0	997.4017826789932	stim	6		17	1.0	0.55	7.0	14.0		1000.7210821710032	0.3003306050086394
67.0	997.7021132840018	stim	7		18	1.0	0.55	7.0	14.0		1001.0214127760119	0.3022298569994746
67.0	998.0043431410013	stim	8		32	1.0	0.55	7.0	14.0		1001.3236426330113	0.5859840509947389
67.0	998.590327191996	stim	9		67	1.0	0.55	7.0	14.0		1001.9096266840061	1.1185967149940552
67.0	999.704261699997	response	9	j		1.0	0.55	7.0	14.0		1003.023561192007	
67.0	999.7089239069901	choice	9		241					1.0	1003.0282233990001	2.8931404200120596
68.0	1002.6020643270022	stim	0		14	1.0	0.55	10.0	23.0		1005.9213638190122	0.24993154699041042
68.0	1002.8519958739926	stim	1		16	1.0	0.55	10.0	23.0		1006.1712953660026	0.2995388300041668
68.0	1003.1515347039967	stim	2		18	1.0	0.55	10.0	23.0		1006.4708341960068	0.30049055500421673
68.0	1003.452025259001	stim	3		29	1.0	0.55	10.0	23.0		1006.771324751011	0.5005429509910755
68.0	1003.952568209992	stim	4		36	1.0	0.55	10.0	23.0		1007.271867702002	0.599799757997971
68.0	1004.55236796799	stim	5		299	1.0	0.55	10.0	23.0		1007.87166746	4.999113620011485
68.0	1009.5514815880015	stim	6		17	1.0	0.55	10.0	23.0		1012.8707810800115	0.30028739299450535
68.0	1009.851768980996	stim	7		17	1.0	0.55	10.0	23.0		1013.171068473006	0.30575184199551586
68.0	1010.1575208229915	stim	8		27	1.0	0.55	10.0	23.0		1013.4768203150015	0.5815688830043655
68.0	1010.7390897059959	stim	9		38	1.0	0.55	10.0	23.0		1014.0583891980059	0.6358559950022027
68.0	1011.3701277649961	response	9	k		1.0	0.55	10.0	23.0		1014.6894272570062	
68.0	1011.3749457009981	choice	9		240					2.0	1014.6942451930081	3.376939042995218
69.0	1014.7518847439933	stim	0		15	1.0	0.55	28.0	66.0		1018.0711842360033	0.24972704400715884
69.0	1015.0016117880004	stim	1		17	1.0	0.55	28.0	66.0		1018.3209112800105	0.2999261169898091
69.0	1015.3015379049903	stim	2		18	1.0	0.55	28.0	66.0		1018.6208373970003	0.3003097470063949
69.0	1015.6018476519966	stim	3		29	1.0	0.55	28.0	66.0		1018.9211471440067	0.5076349940063665
69.0	1016.109482646003	stim	4		25	1.0	0.55	28.0	66.0		1019.428782138013	0.5774227459914982
69.0	1016.6869053919945	stim	5		301	1.0	0.55	28.0	66.0		1020.0062048840045	5.014103456996963
69.0	1021.7010088489915	stim	6		18	1.0	0.55	28.0	66.0		1025.0203083410015	0.30040390200156253
69.0	1022.001412750993	stim	7		18	1.0	0.55	28.0	66.0		1025.320712243003	0.3221120200032601
69.0	1022.3235247709963	stim	8		16	1.0	0.55	28.0	66.0		1025.6428242630063	0.5624845889979042
69.0	1022.8860093599942	stim	9		47	1.0	0.55	28.0	66.0		1026.2053088520042	0.7897111299971584
69.0	1023.670485575989	response	9	j		1.0	0.55	28.0	66.0		1026.989785067999	
69.0	1023.6757204899914	choice	9		240					1.0	1026.9950199820014	3.22590050099825
70.0	1026.9016209909896	stim	0		14	1.0	0.55	7.0	19.0		1030.2209204829996	0.2500156560126925
70.0	1027.1516366470023	stim	1		18	1.0	0.55	7.0	19.0		1030.4709361390123	0.2996984609926585
70.0	1027.451335107995	stim	2		18	1.0	0.55	7.0	19.0		1030.770634600005	0.3000540710054338
70.0	1027.7513891790004	stim	3		30	1.0	0.55	7.0	19.0		1031.0706886710104	0.5000459799921373
70.0	1028.2514351589925	stim	4		36	1.0	0.55	7.0	19.0		1031.5707346510026	0.599949651004863
70.0	1028.8513848099974	stim	5		300	1.0	0.55	7.0	19.0		1032.1706843020074	4.9998935269977665
70.0	1033.8512783369952	stim	6		18	1.0	0.55	7.0	19.0		1037.1705778290052	0.30037399199500214
70.0	1034.1516523289902	stim	7		18	1.0	0.55	7.0	19.0		1037.4709518210002	0.3007872340094764
70.0	1034.4524395629996	stim	8		32	1.0	0.55	7.0	19.0		1037.7717390550097	0.599232464999659
70.0	1035.0516720279993	stim	9		50	1.0	0.55	7.0	19.0		1038.3709715200093	0.8401859869918553
70.0	1035.887021713992	response	9	k		1.0	0.55	7.0	19.0		1039.206321206002	
70.0	1035.8918580149912	choice	9		239					2.0	1039.2111575070012	3.159329822010477
4.0	1039.0511878370016	stim	0		273						1042.3704873290117	4.999813693997567
4.0	1041.8528536869999	response	0	space							1045.17215317901	
4.0	1042.7571916040033	response	0	space							1046.0764910960133	
71.0	1044.0510015309992	stim	0		14	0.55	1.0	94.0	28.0		1047.3703010230092	0.249910942002316
71.0	1044.3009124730015	stim	1		18	0.55	1.0	94.0	28.0		1047.6202119650115	0.30016721099673305
71.0	1044.6010796839983	stim	2		18	0.55	1.0	94.0	28.0		1047.9203791760083	0.2999035510001704
71.0	1044.9009832349984	stim	3		30	0.55	1.0	94.0	28.0		1048.2202827270085	0.5303473880048841
71.0	1045.4313306230033	stim	4		13	0.55	1.0	94.0	28.0		1048.7506301150133	0.5746872429881478
71.0	1046.0060178659915	stim	5		299	0.55	1.0	94.0	28.0		1049.3253173580015	4.994767636002507
71.0	1047.6870946609997	response	5	j		0.55	1.0	94.0	28.0		1051.0063941530098	
71.0	1051.000785501994	stim	6		18	0.55	1.0	94.0	28.0		1054.320084994004	0.30009823400177993
71.0	1051.3008837359957	stim	7		18	0.55	1.0	94.0	28.0		1054.6201832280058	0.3080580440000631
71.0	1051.6089417799958	stim	8		25	0.55	1.0	94.0	28.0		1054.9282412720058	0.592186722002225
71.0	1052.201128501998	stim	9		57	0.55	1.0	94.0	28.0		1055.520427994008	0.956721574999392
71.0	1053.1530668319901	response	9	j		0.55	1.0	94.0	28.0		1056.4723663240002	
71.0	1053.1578500769974	choice	9		239					1.0	1056.4771495690075	3.040335880999919
72.0	1056.1981859579973	stim	0		14	0.55	1.0	40.0	20.0		1059.5174854500074	0.2501309939980274
72.0	1056.4483169519954	stim	1		18	0.55	1.0	40.0	20.0		1059.7676164440054	0.30228846399404574
72.0	1056.7506054159894	stim	2		18	0.55	1.0	40.0	20.0		1060.0699049079994	0.3003524080122588
72.0	1057.0509578240017	stim	3		30	0.55	1.0	40.0	20.0		1060.3702573160117	0.5131535239925142
72.0	1057.5641113479942	stim	4		22	0.55	1.0	40.0	20.0		1060.8834108400042	0.5879034749959828
72.0	1058.1520148229902	stim	5		300	0.55	1.0	40.0	20.0		1061.4713143150002	4.998642427002778
72.0	1063.150657249993	stim	6		18	0.55	1.0	40.0	20.0		1066.469956742003	0.2996607050008606
72.0	1063.4503179549938	stim	7		18	0.55	1.0	40.0	20.0		1066.7696174470038	0.30466116599563975
72.0	1063.7549791209894	stim	8		29	0.55	1.0	40.0	20.0		1067.0742786129995	0.5958443560084561
72.0	1064.350823476998	stim	9		61	0.55	1.0	40.0	20.0		1067.670122969008	1.0242222399974708
72.0	1065.3697040510015	response	9	j		0.55	1.0	40.0	20.0		1068.6890035430115	
72.0	1065.3750457169954	choice	9		239					1.0	1068.6943452090054	2.975888938002754
73.0	1068.3509346549981	stim	0		14	0.55	1.0	33.0	10.0		1071.6702341470082	0.2496235569997225
73.0	1068.6005582119978	stim	1		17	0.55	1.0	33.0	10.0		1071.9198577040079	0.30006491899257526
73.0	1068.9006231309904	stim	2		18	0.55	1.0	33.0	10.0		1072.2199226230005	0.3002569780073827
73.0	1069.2008801089978	stim	3		29	0.55	1.0	33.0	10.0		1072.5201796010078	0.5103645999915898
73.0	1069.7112447089894	stim	4		24	0.55	1.0	33.0	10.0		1073.0305442009994	0.5920886530075222
73.0	1070.303333361997	stim	5		300	0.55	1.0	33.0	10.0		1073.622632854007	4.997139327999321
73.0	1075.3004726899962	stim	6		18	0.55	1.0	33.0	10.0		1078.6197721820063	0.30037010900559835
73.0	1075.6008427990018	stim	7		18	0.55	1.0	33.0	10.0		1078.9201422910119	0.29997303399431985
73.0	1075.9008158329962	stim	8		36	0.55	1.0	33.0	10.0		1079.2201153250062	0.5999224169936497
73.0	1076.5007382499898	stim	9		31	0.55	1.0	33.0	10.0		1079.8200377419998	0.5411634990014136
73.0	1077.036835484003	response	9	j		0.55	1.0	33.0	10.0		1080.356134976013	
73.0	1077.0419017489912	choice	9		239					1.0	1080.3612012410013	3.4588469349982915
74.0	1080.5007486839895	stim	0		15	0.55	1.0	79.0	28.0		1083.8200481759995	0.2500614840100752
74.0	1080.7508101679996	stim	1		18	0.55	1.0	79.0	28.0		1084.0701096600096	0.2995529850013554
74.0	1081.050363153001	stim	2		18	0.55	1.0	79.0	28.0		1084.369662645011	0.3003651429899037
74.0	1081.3507282959908	stim	3		29	0.55	1.0	79.0	28.0		1084.6700277880009	0.5276976940076565
74.0	1081.8784259899985	stim	4		15	0.55	1.0	79.0	28.0		1085.1977254820085	0.592552620000788
74.0	1082.4709786099993	stim	5		298	0.55	1.0	79.0	28.0		1085.7902781020093	4.979319053993095
74.0	1087.4502976639924	stim	6		17	0.55	1.0	79.0	28.0		1090.7695971560024	0.30033691400603857
74.0	1087.7506345779984	stim	7		18	0.55	1.0	79.0	28.0		1091.0699340700085	0.30802989499352407
74.0	1088.058664472992	stim	8		25	0.55	1.0	79.0	28.0		1091.377963965002	0.5783085800067056
74.0	1088.6369730529987	stim	9		14	0.55	1.0	79.0	28.0		1091.9562725450087	0.2348713819956174
74.0	1088.8669867769931	response	9	j		0.55	1.0	79.0	28.0		1092.1862862690032	
74.0	1088.8718444349943	choice	9		241					1.0	1092.1911439270043	3.7786008520051837
75.0	1092.6504452869995	stim	0		15	0.55	1.0	16.0	14.0		1095.9697447790095	0.2501110159937525
75.0	1092.9005563029932	stim	1		18	0.55	1.0	16.0	14.0		1096.2198557950032	0.29966976700234227
75.0	1093.2002260699956	stim	2		18	0.55	1.0	16.0	14.0		1096.5195255620056	0.30035149700415786
75.0	1093.5005775669997	stim	3		30	0.55	1.0	16.0	14.0		1096.8198770590097	0.5021090469963383
75.0	1094.002686613996	stim	4		35	0.55	1.0	16.0	14.0		1097.321986106006	0.5902685839973856
75.0	1094.5929551979934	stim	5		300	0.55	1.0	16.0	14.0		1097.9122546900035	4.999795933996211
75.0	1099.5927511319896	stim	6		18	0.55	1.0	16.0	14.0		1102.9120506239997	0.30009636901377235
75.0	1099.8928475010034	stim	7		18	0.55	1.0	16.0	14.0		1103.2121469930134	0.2995657499996014
75.0	1100.192413251003	stim	8		36	0.55	1.0	16.0	14.0		1103.511712743013	0.6001790890004486
75.0	1100.7925923400035	stim	9		17	0.55	1.0	16.0	14.0		1104.1118918320135	0.28768920998845715
75.0	1101.0766635539912	response	9	k		0.55	1.0	16.0	14.0		1104.3959630460013	
75.0	1101.080281549992	choice	9		240					2.0	1104.399581042002	3.712396909002564
76.0	1104.7926784589945	stim	0		15	0.55	1.0	40.0	10.0		1108.1119779510045	0.2499782899976708
76.0	1105.0426567489922	stim	1		18	0.55	1.0	40.0	10.0		1108.3619562410022	0.2998680820019217
76.0	1105.342524830994	stim	2		18	0.55	1.0	40.0	10.0		1108.661824323004	0.30008522600110155
76.0	1105.6426100569952	stim	3		30	0.55	1.0	40.0	10.0		1108.9619095490052	0.5063869599980535
76.0	1106.1489970169932	stim	4		31	0.55	1.0	40.0	10.0		1109.4682965090033	0.6096333930036053
76.0	1106.7586304099968	stim	5		299	0.55	1.0	40.0	10.0		1110.0779299020069	4.983909094997216
76.0	1111.742539504994	stim	6		18	0.55	1.0	40.0	10.0		1115.061838997004	0.30013358099677134
76.0	1112.0426730859908	stim	7		18	0.55	1.0	40.0	10.0		1115.3619725780009	0.2998803540103836
76.0	1112.3425534400012	stim	8		36	0.55	1.0	40.0	10.0		1115.6618529320112	0.6002385699976003
76.0	1112.9427920099988	stim	9		40	0.55	1.0	40.0	10.0		1116.2620915020088	0.6731237009953475
76.0	1113.6113563659892	response	9	j		0.55	1.0	40.0	10.0		1116.9306558579992	
76.0	1113.6159157109942	choice	9		240					1.0	1116.9352152030042	3.3267804570059525
77.0	1116.942696168	stim	0		15	0.55	1.0	9.0	7.0		1120.2619956600101	0.24962979299016297
77.0	1117.1923259609903	stim	1		18	0.55	1.0	9.0	7.0		1120.5116254530003	0.300178600999061
77.0	1117.4925045619893	stim	2		18	0.55	1.0	9.0	7.0		1120.8118040539994	0.29986500400991645
77.0	1117.7923695659993	stim	3		30	0.55	1.0	9.0	7.0		1121.1116690580093	0.49972638599865604
77.0	1118.292095951998	stim	4		36	0.55	1.0	9.0	7.0		1121.611395444008	0.6001660329930019
77.0	1118.892261984991	stim	5		300	0.55	1.0	9.0	7.0		1122.211561477001	5.000404097998398
77.0	1123.8926660829893	stim	6		18	0.55	1.0	9.0	7.0		1127.2119655749993	0.2998166460020002
77.0	1124.1924827289913	stim	7		18	0.55	1.0	9.0	7.0		1127.5117822210013	0.29965682500915136
77.0	1124.4921395540005	stim	8		36	0.55	1.0	9.0	7.0		1127.8114390460105	0.6005585410021013
77.0	1125.0926980950026	stim	9		5	0.55	1.0	9.0	7.0		1128.4119975870126	0.09050387199386023
77.0	1125.1783632409933	response	9	j		0.55	1.0	9.0	7.0		1128.4976627330034	
77.0	1125.1832019669964	choice	9		240					1.0	1128.5025014590065	3.9093540070025483
78.0	1129.092555973999	stim	0		15	0.55	1.0	16.0	10.0		1132.411855466009	0.24988391999795567
78.0	1129.342439893997	stim	1		18	0.55	1.0	16.0	10.0		1132.661739386007	0.2999727489950601
78.0	1129.642412642992	stim	2		18	0.55	1.0	16.0	10.0		1132.961712135002	0.3001967130112462
78.0	1129.9426093560032	stim	3		30	0.55	1.0	16.0	10.0		1133.2619088480133	0.4996757609915221
78.0	1130.4422851169948	stim	4		36	0.55	1.0	16.0	10.0		1133.7615846090048	0.5998800480010686
78.0	1131.0421651649958	stim	5		300	0.55	1.0	16.0	10.0		1134.3614646570059	5.00017341900093
78.0	1136.0423385839968	stim	6		18	0.55	1.0	16.0	10.0		1139.3616380760068	0.29968997300602496
78.0	1136.3420285570028	stim	7		18	0.55	1.0	16.0	10.0		1139.6613280490128	0.30012234499736223
78.0	1136.6421509020001	stim	8		36	0.55	1.0	16.0	10.0		1139.9614503940102	0.5999543399957474
78.0	1137.242105241996	stim	9		31	0.55	1.0	16.0	10.0		1140.561404734006	0.523760737007251
78.0	1137.7612338089966	response	9	k		0.55	1.0	16.0	10.0		1141.0805333010067	
78.0	1137.7658659790031	choice	9		240					2.0	1141.0851654710132	3.4763564169988967
79.0	1141.242222396002	stim	0		15	0.55	1.0	39.0	28.0		1144.561521888012	0.24995047099946532
79.0	1141.4921728670015	stim	1		18	0.55	1.0	39.0	28.0		1144.8114723590115	0.30011336600000504
79.0	1141.7922862330015	stim	2		18	0.55	1.0	39.0	28.0		1145.1115857250115	0.3001174349919893
79.0	1142.0924036679935	stim	3		30	0.55	1.0	39.0	28.0		1145.4117031600035	0.5059262220020173
79.0	1142.5983298899955	stim	4		32	0.55	1.0	39.0	28.0		1145.9176293820055	0.5935910609987332
79.0	1143.1919209509942	stim	5		300	0.55	1.0	39.0	28.0		1146.5112204430043	4.999780030004331
79.0	1148.1917009809986	stim	6		18	0.55	1.0	39.0	28.0		1151.5110004730086	0.2998985680023907
79.0	1148.491599549001	stim	7		18	0.55	1.0	39.0	28.0		1151.810899041011	0.30042965000029653
79.0	1148.7920291990013	stim	8		36	0.55	1.0	39.0	28.0		1152.1113286910113	0.6000843340007123
79.0	1149.392113533002	stim	9		45	0.55	1.0	39.0	28.0		1152.711413025012	0.7570890809874982
79.0	1150.1444883079967	response	9	k		0.55	1.0	39.0	28.0		1153.4637878000067	
79.0	1150.1492026139895	choice	9		240					2.0	1153.4685021059995	3.2430679650133243
80.0	1153.3922705790028	stim	0		15	0.55	1.0	11.0	10.0		1156.7115700710128	0.24984793498879299
80.0	1153.6421185139916	stim	1		18	0.55	1.0	11.0	10.0		1156.9614180060016	0.30006165700615384
80.0	1153.9421801709977	stim	2		18	0.55	1.0	11.0	10.0		1157.2614796630078	0.29910316099994816
80.0	1154.2412833319977	stim	3		30	0.55	1.0	11.0	10.0		1157.5605828240077	0.5005252279952401
80.0	1154.741808559993	stim	4		36	0.55	1.0	11.0	10.0		1158.061108052003	0.6003442869987339
80.0	1155.3421528469917	stim	5		300	0.55	1.0	11.0	10.0		1158.6614523390017	4.999552674998995
80.0	1160.3417055219907	stim	6		18	0.55	1.0	11.0	10.0		1163.6610050140007	0.3003996570041636
80.0	1160.6421051789948	stim	7		18	0.55	1.0	11.0	10.0		1163.9614046710049	0.2996474829997169
80.0	1160.9417526619945	stim	8		36	0.55	1.0	11.0	10.0		1164.2610521540046	0.6003100609959802
80.0	1161.5420627229905	stim	9		116	0.55	1.0	11.0	10.0		1164.8613622150006	1.9391753480012994
80.0	1163.4766565530008	response	9	k		0.55	1.0	11.0	10.0		1166.7959560450108	
80.0	1163.4812380709918	choice	9		240					2.0	1166.8005375630019	2.0606993330002297
81.0	1165.541937403992	stim	0		724						1168.861236896002	12.065569915008382
81.0	1177.5933859869983	response	0	space							1180.9126854790084	
